trial size orLarge phase dur orSmall task response rt
1 8 180 0.4 6 1.5 comp left 0.870270864883
2 8 180 0.0 6 0.0 comp right 1.8228349188
3 8 0 0.8 6 -2.0 equ n 2.49314549218
4 8 0 0.4 6 -2.0 equ n 1.24660743354
5 8 0 0.8 6 1.0 equ m 1.28189664061
6 8 180 0.2 6 2.0 comp left 0.882053864814
7 8 180 0.2 6 1.0 comp left 1.1995766215
8 8 0 0.4 6 0.5 equ m 1.24658366976
9 8 270 0.8 6 -2.0 comp down 1.65821979423
10 8 180 0.4 6 1.5 equ n 2.02279176072
11 8 0 0.6 6 -0.5 comp left 1.41119841105
12 8 270 0.8 6 -2.0 equ n 1.57587294506
13 8 270 0.2 6 -1.5 equ n 1.28186674424
14 8 90 0.8 6 2.0 equ n 1.37595634824
15 8 0 0.6 6 -2.0 equ n 1.44651713119
16 8 90 0.8 6 -1.0 comp up 1.22307056347
17 8 180 0.6 6 1.5 comp left 0.917287878596
18 8 90 0.2 6 0.5 equ m 1.19954710843
19 8 180 0.4 6 2.0 comp left 0.858483265511
20 8 0 0.2 6 -1.5 comp left 1.09369826827
21 8 270 0.6 6 -0.5 comp down 1.21130672787
22 8 0 0.8 6 -1.0 comp left 0.92905784678
23 8 0 0.4 6 0.0 comp right 1.76404065445
24 8 270 0.2 6 0.5 equ m 1.35242791048
25 8 0 0.2 6 -0.5 equ m 3.23407894096
26 8 270 0.4 6 -1.5 comp down 1.88170162433
27 8 0 0.6 6 1.0 comp right 1.36417104859
28 8 180 0.8 6 1.0 equ m 1.68169648829
29 8 180 0.2 6 1.5 equ m 1.41124210573
30 8 180 0.0 6 0.0 equ n 1.31714445271
31 8 0 0.6 6 -1.0 equ n 1.6582178778
32 8 180 0.0 6 1.0 comp left 0.92909157601
33 8 90 0.2 6 -1.5 equ n 1.79931874621
34 8 270 0.4 6 1.0 comp down 3.1399939364
35 8 90 0.8 6 1.5 comp down 1.093703251
36 8 0 0.0 6 -1.0 equ n 1.42301437363
37 8 270 0.0 6 2.0 equ n 1.505326727
38 8 90 0.6 6 2.0 comp down 0.999601765112
39 8 0 0.4 6 -1.5 equ n 1.34066024201
40 8 270 0.4 6 -0.5 comp down 1.3054154962
41 8 270 0.4 6 -1.5 equ n 1.42299904217
42 8 90 0.4 6 -1.0 equ m 1.1054697696
43 8 270 0.6 6 2.0 equ n 1.8463392095
44 8 180 0.8 6 0.5 comp left 1.08194784771
45 8 180 0.6 6 -1.0 equ m 1.22304143368
46 8 270 0.0 6 2.0 comp up 0.917276763282
47 8 270 0.4 6 -1.0 equ n 1.69347757179
48 8 180 0.8 6 2.0 comp left 0.846759675019
49 8 180 0.0 6 1.5 equ n 2.04628531939
50 8 0 0.4 6 0.0 equ m 1.11726580128
51 8 270 0.0 6 -1.0 comp down 0.952604682307
52 8 0 0.8 6 0.5 equ m 1.28187785956
53 8 180 0.4 6 -1.5 equ n 3.15175508899
54 8 180 0.8 6 -1.5 equ n 1.258372419
55 8 0 0.4 6 0.5 comp right 1.69346952277
56 8 270 0.2 6 -2.0 equ n 1.39944530748
57 8 90 0.0 6 0.5 equ m 1.18779170514
58 8 90 0.0 6 1.5 comp down 1.0584121275
59 8 180 0.0 6 0.5 equ m 1.24659018564
60 8 90 0.4 6 1.0 comp down 1.11723092219
61 8 270 0.6 6 0.0 equ m 1.32893856796
62 8 270 0.2 6 1.5 comp up 1.4464822521
63 8 270 0.6 6 1.0 comp up 1.01140891211
64 8 90 0.6 6 1.0 comp down 1.14072179786
65 8 90 0.0 6 -2.0 comp up 0.987884690494
66 8 90 0.4 6 2.0 comp down 0.893778221879
67 8 270 0.4 6 -1.0 comp down 0.905564671391
68 8 270 0.4 6 1.5 equ n 1.77578110956
69 8 0 0.4 6 1.0 comp right 1.21133317465
70 8 90 0.4 6 2.0 equ n 1.31715441817
71 8 180 0.8 6 -1.5 comp right 0.952574019371
72 8 180 0.0 6 2.0 equ n 1.42301897308
73 8 0 0.0 6 -2.0 equ n 1.32893511838
74 8 270 0.2 6 0.0 equ m 1.07018324554
75 8 90 0.2 6 2.0 equ n 2.03455099687
76 8 180 0.6 6 -0.5 comp right 1.07018017925
77 8 180 0.0 6 1.0 equ m 0.917296694191
78 8 180 0.0 6 0.5 comp left 1.55231384435
79 8 90 0.4 6 1.5 equ n 2.15214182528
80 8 180 0.4 6 0.5 comp left 1.39949015202
81 8 90 0.6 6 1.5 comp down 1.49355215938
82 8 180 0.2 6 0.5 equ m 1.23483746536
83 8 0 0.6 6 -2.0 comp left 0.987842528956
84 8 90 0.8 6 -2.0 comp up 1.17588911976
85 8 90 0.8 6 -0.5 comp up 1.2466143327
86 8 0 0.6 6 0.5 equ m 1.10544600583
87 8 90 0.6 6 -0.5 comp up 0.882032017472
88 8 0 0.6 6 -1.0 comp left 0.870257833135
89 8 270 0.2 6 -0.5 comp down 0.99964737623
90 8 270 0.0 6 -0.5 equ n 1.0819252338
91 8 0 0.6 6 2.0 comp right 0.999610963993
92 8 270 0.0 6 -1.5 comp down 0.85850434628
93 8 90 0.8 6 -1.5 comp up 1.11722248988
94 8 270 0.2 6 -0.5 equ n 1.75230249907
95 8 270 0.0 6 -0.5 comp down 1.55235562261
96 8 270 0.8 6 1.5 equ m 1.02312292043
97 8 0 0.2 6 -1.0 comp left 0.987865142872
98 8 180 0.2 6 -0.5 comp right 1.97569310693
99 8 90 0.0 6 -1.5 equ n 1.32893358523
100 8 270 0.6 6 1.5 equ m 0.999809506507
101 8 180 0.6 6 -1.5 equ n 2.25798184984
102 8 0 0.0 6 0.5 comp right 1.30533462271
103 8 0 0.6 6 -0.5 equ m 0.917328123701
104 8 180 0.0 6 -2.0 comp right 1.34067710663
105 8 270 0.6 6 -1.5 equ n 1.84635224125
106 8 0 0.0 6 -1.0 comp left 0.929275170342
107 8 270 0.2 6 0.0 comp up 2.46964158477
108 8 90 0.2 6 -2.0 comp up 0.882045432506
109 8 270 0.6 6 -1.0 equ n 1.69347488878
110 8 0 0.0 6 -0.5 comp left 0.929080843982
111 8 90 0.2 6 1.0 equ m 0.964365068323
112 8 270 0.8 6 -1.0 comp down 0.893799685935
113 8 270 0.4 6 2.0 comp up 0.893755224677
114 8 180 0.0 6 -1.0 equ m 0.834965559773
115 8 0 0.2 6 0.5 comp right 1.15251169695
116 8 180 0.2 6 0.5 comp left 1.37592645188
117 8 90 0.6 6 0.5 comp up 1.31700800264
118 8 180 0.6 6 -0.5 equ m 0.964316390911
119 8 0 0.6 6 2.0 equ n 1.34069857069
120 8 180 0.8 6 1.0 comp left 0.940793702446
121 8 270 0.4 6 -0.5 equ n 1.02314668421
122 8 0 0.8 6 -0.5 comp left 0.834983957535
123 8 180 0.6 6 -1.0 comp right 0.905474599015
124 8 90 0.0 6 -0.5 comp up 0.905534775028
125 8 0 0.8 6 0.0 equ m 0.929047498038
126 8 0 0.0 6 -1.5 equ n 1.09369711841
127 8 180 0.2 6 -0.5 equ n 4.70407966538
128 8 0 0.4 6 2.0 comp right 0.787924782284
129 8 270 0.8 6 -1.5 comp down 0.858482498937
130 8 90 0.4 6 0.0 equ n 1.08197736079
131 8 270 0.6 6 1.5 comp up 0.835004655017
132 8 270 0.8 6 -0.5 equ n 1.47005630098
133 8 270 0.6 6 -2.0 comp down 0.8937805216
134 8 270 0.8 6 -1.5 equ n 1.1760205871
135 8 180 0.2 6 1.0 equ m 1.45826946819
136 8 0 0.4 6 2.0 equ n 1.97576094868
137 8 270 0.0 6 0.0 comp down 0.929035999437
138 8 270 0.4 6 0.5 equ m 1.03487717386
139 8 0 0.0 6 0.5 equ m 1.04665250806
140 8 0 0.2 6 1.5 equ n 1.28192538711
141 8 90 0.0 6 1.5 equ n 1.35241411216
142 8 90 0.6 6 -1.0 equ n 0.952580918531
143 8 90 0.0 6 0.0 comp up 1.63467679157
144 8 180 0.4 6 -1.5 comp right 0.870242501666
145 8 270 0.2 6 -1.5 comp down 1.02316201567
146 8 270 0.0 6 -2.0 equ n 0.905550106496
147 8 270 0.4 6 -2.0 equ n 0.84674089397
148 8 90 0.0 6 0.0 equ m 0.976101690563
149 8 180 0.2 6 -2.0 equ n 0.976125071052
150 8 0 0.2 6 -2.0 equ n 1.49355752539
151 8 0 0.8 6 1.5 comp right 1.10547475233
152 8 0 0.6 6 1.5 equ m 0.870257066561
153 8 180 0.6 6 1.5 equ n 1.12884105982
154 8 270 0.4 6 0.5 comp up 1.25838238445
155 8 90 0.6 6 -0.5 equ m 1.08193481596
156 8 90 0.4 6 0.0 comp up 1.05843742442
157 8 90 0.8 6 1.0 equ m 0.893778221879
158 8 0 0.6 6 -1.5 equ n 3.70451162949
159 8 180 0.6 6 1.0 comp left 1.01140431267
160 8 270 0.4 6 0.0 comp down 1.58764482967
161 8 0 0.6 6 0.0 equ m 0.870270481596
162 8 90 0.0 6 -2.0 equ n 1.34066829104
163 8 0 0.2 6 2.0 equ n 1.07017251351
164 8 90 0.4 6 -2.0 equ n 1.12896869429
165 8 270 0.4 6 2.0 equ m 0.799653355503
166 8 90 0.6 6 -2.0 equ m 1.52883600043
167 8 90 0.4 6 1.0 equ m 0.952610048321
168 8 180 0.2 6 -1.0 comp right 0.835001205437
169 8 180 0.0 6 -1.5 equ n 1.10546172058
170 8 0 0.2 6 0.5 equ m 0.999596015811
171 8 0 0.0 6 -0.5 equ m 0.799697050187
172 8 0 0.2 6 1.5 comp right 1.27008451089
173 8 270 0.2 6 2.0 equ n 0.858492081105
174 8 90 0.6 6 -1.5 equ m 0.893802368942
175 8 270 0.8 6 -1.0 equ n 1.04664330917
176 8 270 0.4 6 0.0 equ m 1.01137863246
177 8 0 0.0 6 1.0 equ m 1.50531561169
178 8 0 0.0 6 0.0 equ m 0.799680185572
179 8 180 0.0 6 2.0 comp left 0.834980507954
180 8 0 0.2 6 -2.0 comp left 0.823189075716
181 8 0 0.4 6 -0.5 equ n 0.905538607895
182 8 180 0.0 6 -0.5 equ m 1.01139358064
183 8 180 0.0 6 -1.5 comp right 0.858506646
184 8 90 0.8 6 0.5 comp down 14.8414898661
185 8 270 0.2 6 1.0 comp up 1.30539173243
186 8 90 0.2 6 -1.0 comp up 0.77618049431
187 8 0 0.0 6 -2.0 comp left 0.799692834034
188 8 0 0.0 6 1.0 comp right 1.17602940269
189 8 90 0.2 6 -2.0 equ n 1.35240682971
190 8 270 0.8 6 1.0 equ m 1.14076817555
191 8 180 0.8 6 -1.0 equ m 0.870279680477
192 8 90 0.8 6 -1.5 equ n 0.940843913005
193 8 90 0.2 6 -1.5 comp up 0.89377937174
194 8 90 0.2 6 -1.0 equ n 1.05843627456
195 8 270 0.2 6 1.5 equ n 1.12900357338
196 8 270 0.8 6 -0.5 comp down 0.893796236355
197 8 180 0.2 6 1.5 comp left 1.02313710204
198 8 0 0.2 6 1.0 equ m 0.717398111853
199 8 270 0.0 6 1.0 equ m 0.893773622439
200 8 180 0.2 6 -1.5 equ n 0.882024351738
201 8 270 0.0 6 -1.0 equ n 0.999603298259
202 8 180 0.4 6 -0.5 comp left 1.10546746988
203 8 270 0.6 6 2.0 comp up 0.693891138143
204 8 180 0.2 6 -1.0 equ n 0.729142783114
205 8 90 0.6 6 0.0 comp up 0.929055163773
206 8 0 0.6 6 1.0 equ m 1.02311947085
207 8 180 0.6 6 1.0 equ m 0.893806968382
208 8 90 0.4 6 -1.0 comp up 0.882020902157
209 8 270 0.8 6 0.0 equ m 0.752663171858
210 8 270 0.0 6 0.5 equ m 0.799720430676
211 8 180 0.8 6 -1.0 comp right 2.22269685893
212 8 90 0.0 6 1.0 comp down 2.38733268098
213 8 0 0.0 6 2.0 comp right 1.04667933813
214 8 180 0.6 6 -2.0 equ n 1.15251131367
215 8 180 0.8 6 0.0 equ m 0.670360400657
216 8 90 0.0 6 2.0 comp up 1.32895083313
217 8 90 0.2 6 -0.5 comp up 2.30505482341
218 8 180 0.6 6 0.0 comp right 0.917342305308
219 8 90 0.4 6 -0.5 comp up 1.09367987051
220 8 180 0.4 6 -0.5 equ m 0.705595181013
221 8 270 0.4 6 1.0 equ m 0.776146765079
222 8 180 0.4 6 0.0 comp left 1.04663564344
223 8 180 0.0 6 -1.0 comp right 0.905538991182
224 8 270 0.8 6 2.0 equ n 1.08194631456
225 8 180 0.6 6 2.0 equ n 1.07021467505
226 8 180 0.8 6 -2.0 equ n 0.964341687834
227 8 90 0.0 6 -0.5 equ m 1.56408112953
228 8 180 0.6 6 2.0 comp left 0.764571506543
229 8 90 0.2 6 0.0 comp up 1.04666055708
230 8 180 0.6 6 -1.5 comp right 0.799675202845
231 8 180 0.6 6 0.5 equ n 3.35171001448
232 8 180 0.6 6 0.5 comp left 1.95222024574
233 8 90 0.8 6 -0.5 equ n 0.929076244542
234 8 0 0.8 6 2.0 comp right 0.740890137381
235 8 180 0.8 6 1.5 comp left 0.799703566061
236 8 0 0.8 6 -1.5 equ n 0.94079561888
237 8 0 0.8 6 1.5 equ n 1.24660590039
238 8 90 0.0 6 2.0 equ n 0.893773239152
239 8 0 0.2 6 2.0 comp right 0.823240052847
240 8 90 0.2 6 0.0 equ m 0.81152067851
241 8 180 0.2 6 0.0 equ m 0.71740424444
242 8 180 0.6 6 0.0 equ m 0.834973608794
243 8 270 0.6 6 0.5 comp up 0.987891589655
244 8 270 0.6 6 -1.0 comp down 1.66996101591
245 8 90 0.8 6 0.0 equ m 0.834995839423
246 8 180 0.8 6 2.0 equ n 0.858524277189
247 8 270 0.6 6 -1.5 comp down 0.858519677748
248 8 0 0.4 6 1.5 comp right 0.646817397997
249 8 270 0.8 6 0.0 comp down 0.952561370909
250 8 270 0.2 6 2.0 comp up 0.693835178284
251 8 0 0.8 6 1.0 comp right 0.799677885852
252 8 90 0.0 6 -1.5 comp up 1.01138821462
253 8 270 0.0 6 1.0 comp up 0.787959278087
254 8 90 0.6 6 0.0 equ m 1.97569272365
255 8 0 0.4 6 -1.0 equ m 0.68206291038
256 8 0 0.8 6 -2.0 comp left 0.905506028525
257 8 90 0.6 6 1.5 equ n 1.85809806237
258 8 0 0.4 6 -1.5 comp left 0.823186775995
259 8 270 0.2 6 -2.0 comp down 0.846753925718
260 8 90 0.4 6 1.5 comp down 1.16426978325
261 8 270 0.2 6 0.5 comp up 1.31715480145
262 8 270 0.0 6 0.5 comp up 1.35241909488
263 8 90 0.4 6 -0.5 equ m 1.56409876072
264 8 90 0.8 6 0.0 comp up 1.05844738988
265 8 0 0.4 6 1.0 equ n 1.02314860064
266 8 180 0.8 6 1.5 equ n 1.01137709931
267 8 0 0.8 6 -0.5 equ m 0.670340469748
268 8 0 0.2 6 0.0 equ m 0.635038230932
269 8 0 0.0 6 2.0 equ m 1.68171258633
270 8 0 0.4 6 1.5 equ n 1.10547398576
271 8 90 0.6 6 1.0 equ n 1.27013855431
272 8 90 0.0 6 1.0 equ m 0.670361167231
273 8 270 0.2 6 -1.0 equ m 1.47004326924
274 8 0 0.4 6 -0.5 comp left 0.740921566892
275 8 180 0.8 6 -0.5 comp right 0.823224338093
276 8 270 0.6 6 0.0 comp up 1.0583918133
277 8 90 0.2 6 0.5 comp down 1.08196432904
278 8 90 0.2 6 1.5 equ m 0.682099705904
279 8 90 0.8 6 1.5 equ m 0.976085592521
280 8 270 0.6 6 -2.0 equ n 1.09370171785
281 8 180 0.0 6 -2.0 equ n 0.811478133685
282 8 270 0.4 6 1.5 comp up 0.952578235524
283 8 0 0.0 6 1.5 equ m 0.764413209133
284 8 90 0.8 6 2.0 comp down 0.823189459002
285 8 270 0.6 6 0.5 equ m 0.893895124325
286 8 90 0.6 6 -2.0 comp up 0.729142399827
287 8 90 0.0 6 -1.0 equ n 1.07019052799
288 8 180 0.4 6 -1.0 equ n 0.834940646137
289 8 180 0.6 6 -2.0 comp right 1.04656665183
290 8 180 0.4 6 0.0 equ m 0.682065210101
291 8 180 0.2 6 2.0 equ n 1.21131056074
292 8 0 0.6 6 0.5 comp right 0.964361618742
293 8 180 0.8 6 0.0 comp left 1.04665097491
294 8 90 0.6 6 0.5 equ m 1.05843665785
295 8 180 0.8 6 0.5 equ m 0.646806665969
296 8 0 0.0 6 0.0 comp left 0.893795853068
297 8 0 0.2 6 -1.0 equ n 1.4700586007
298 8 180 0.4 6 0.5 equ m 1.48178142462
299 8 270 0.0 6 1.5 equ m 1.68175934731
300 8 180 0.8 6 -2.0 comp right 0.717385463392
301 8 180 0.0 6 1.5 comp left 0.705617411642
302 8 0 0.4 6 -1.0 comp left 0.811467018371
303 8 0 0.4 6 -2.0 comp left 0.682092423457
304 8 270 0.2 6 -1.0 comp down 0.929045581605
305 8 0 0.8 6 2.0 equ n 1.07021505834
306 8 90 0.0 6 0.5 comp up 1.19949843102
307 8 90 0.4 6 -1.5 equ n 0.882049265374
308 8 90 0.6 6 -1.5 comp up 1.39950203391
309 8 180 0.4 6 1.0 equ m 0.987857860425
310 8 90 0.6 6 2.0 equ m 1.19955132458
311 8 270 0.6 6 1.0 equ n 1.68173635011
312 8 270 0.8 6 0.5 equ m 0.917264498107
313 8 180 0.4 6 -2.0 comp right 1.85812872531
314 8 90 0.2 6 -0.5 equ m 0.893988262995
315 8 90 0.4 6 0.5 equ m 0.870257833134
316 8 0 0.8 6 -1.5 comp left 0.870257066561
317 8 270 0.0 6 -1.5 equ n 0.976133886646
318 8 180 0.4 6 1.0 comp left 0.870238668799
319 8 180 0.0 6 -0.5 comp right 1.19952257808
320 8 0 0.0 6 -1.5 comp left 0.999623612454
321 8 90 0.8 6 0.5 equ m 1.12897636003
322 8 90 0.4 6 -1.5 comp up 0.834981657815
323 8 90 0.4 6 -2.0 comp up 0.717414593182
324 8 90 0.2 6 1.5 comp down 0.799730396131
325 8 270 0.8 6 1.5 comp up 0.74090891843
326 8 90 0.2 6 2.0 comp down 0.846710231034
327 8 0 0.8 6 -1.0 equ m 0.964317540771
328 8 180 0.4 6 2.0 equ n 1.76402953914
329 8 0 0.6 6 -1.5 comp left 0.740870973046
330 8 180 0.4 6 -1.0 comp right 0.764420108294
331 8 0 0.6 6 1.5 comp right 0.776167462561
332 8 180 0.2 6 0.0 comp right 0.964348203708
333 8 0 0.2 6 -1.5 equ n 1.79921564208
334 8 90 0.8 6 1.0 comp down 3.2222940246
335 8 90 0.8 6 -1.0 equ n 0.91725721566
336 8 270 0.6 6 -0.5 equ n 0.752662788572
337 8 90 0.4 6 0.5 comp up 1.05846655421
338 8 0 0.8 6 0.5 comp right 0.893818466983
339 8 0 0.2 6 0.0 comp left 1.8111316425
340 8 270 0.8 6 1.0 comp up 1.19955132458
341 8 270 0.0 6 1.5 comp up 0.846760058306
342 8 180 0.8 6 -0.5 equ m 1.36418484691
343 8 90 0.8 6 -2.0 equ n 0.834980891241
344 8 90 0.0 6 -1.0 comp up 0.999646609657
345 8 180 0.4 6 -2.0 equ n 1.41125360433
346 8 270 0.4 6 -2.0 comp down 1.19952411123
347 8 180 0.2 6 -1.5 comp right 0.799684785013
348 8 90 0.6 6 -1.0 comp up 0.858502046559
349 8 270 0.0 6 0.0 equ m 1.72879207578
350 8 0 0.6 6 0.0 comp right 1.0466571075
351 8 0 0.0 6 1.5 comp right 0.658573567859
352 8 0 0.2 6 1.0 comp right 0.682100472477
353 8 0 0.8 6 0.0 comp right 1.71699911039
354 8 180 0.2 6 -2.0 comp right 0.729126301785
355 8 270 0.8 6 2.0 comp up 0.752736379619
356 8 90 0.2 6 1.0 comp down 1.3406778732
357 8 0 0.2 6 -0.5 comp right 0.552735459731
358 8 270 0.8 6 0.5 comp up 1.08196471233
359 8 270 0.2 6 1.0 equ m 0.79972464683
360 8 270 0.0 6 -2.0 comp down 2.84597662028
