trial size orLarge phase dur orSmall task response rt
1 8 0 0.2 6 -1.5 equ m 5.02156661107
2 8 180 0.6 6 -1.0 equ m 1.27010083816
3 8 0 0.4 6 1.5 comp right 1.31712055771
4 8 180 0.4 6 -1.0 comp left 1.39948785625
5 8 180 0.8 6 1.5 comp left 1.18779869785
6 8 0 0.8 6 -1.0 equ m 1.09379337094
7 8 0 0.8 6 1.0 equ n 1.90513765061
8 8 0 0.8 6 -1.0 comp right 1.5523122935
9 8 0 0.2 6 2.0 equ m 1.91692784266
10 8 90 0.2 6 -1.5 equ n 2.54018787807
11 8 270 0.6 6 1.0 equ n 1.49356409063
12 8 270 0.4 6 1.5 comp up 1.29380923894
13 8 0 0.2 6 -1.0 comp right 1.58763380919
14 8 90 0.6 6 1.5 comp down 1.16425127623
15 8 180 0.6 6 0.0 comp left 0.77615231392
16 8 90 0.8 6 0.0 equ n 1.54060029134
17 8 90 0.2 6 1.5 comp down 0.987847604789
18 8 90 0.0 6 1.0 comp down 1.05841589585
19 8 0 0.2 6 0.0 comp right 0.905537032289
20 8 270 0.6 6 0.0 comp up 0.999620165792
21 8 90 0.4 6 -2.0 comp up 0.882045570179
22 8 0 0.0 6 -1.5 comp left 2.43436897884
23 8 0 0.6 6 0.5 equ n 1.22306118777
24 8 90 0.4 6 0.0 comp up 1.32890959986
25 8 270 0.8 6 0.5 comp up 1.01136934641
26 8 0 0.6 6 2.0 equ n 1.36417783907
27 8 180 0.4 6 1.0 comp left 1.0113494157
28 8 90 0.6 6 -1.0 equ n 1.8816247246
29 8 180 0.4 6 -0.5 equ m 1.02310741181
30 8 0 0.6 6 1.0 comp right 0.670341080404
31 8 90 0.6 6 1.0 comp down 1.24659557774
32 8 180 0.0 6 2.0 comp left 0.858489333012
33 8 180 0.8 6 -1.5 comp left 1.34065149812
34 8 90 0.0 6 2.0 equ n 6.75037188112
35 8 180 0.2 6 2.0 comp left 1.07015357795
36 8 90 0.4 6 -1.0 equ m 1.14071267017
37 8 270 0.0 6 2.0 comp up 1.76403594745
38 8 270 0.2 6 0.0 equ n 1.64642762276
39 8 90 0.0 6 -1.0 equ m 0.952593930415
40 8 180 0.8 6 -2.0 equ m 0.940785724088
41 8 0 0.4 6 -0.5 comp right 1.54056962865
42 8 90 0.6 6 -2.0 equ n 1.15249634633
43 8 90 0.0 6 0.5 comp down 0.89377213706
44 8 180 0.8 6 1.5 equ n 1.54056042986
45 8 180 0.0 6 -0.5 equ n 1.35242904176
46 8 0 0.8 6 2.0 equ n 1.72875429323
47 8 90 0.6 6 0.5 comp down 2.65781804983
48 8 180 0.6 6 -2.0 comp right 10.5606828277
49 8 180 0.8 6 2.0 equ n 2.72833651397
50 8 270 0.6 6 2.0 equ n 1.85813211254
51 8 180 0.8 6 -0.5 equ m 1.04661573848
52 8 0 0.0 6 0.5 equ n 1.12899415224
53 8 90 0.6 6 -0.5 equ n 2.10508797708
54 8 90 0.0 6 -1.5 comp up 0.940805271559
55 8 0 0.0 6 -2.0 equ m 1.55231995916
56 8 0 0.2 6 1.5 comp right 0.787934840191
57 8 180 0.2 6 2.0 equ n 2.46963798464
58 8 180 0.2 6 1.5 equ n 0.882036754629
59 8 270 0.8 6 2.0 comp up 1.42301151418
60 8 180 0.6 6 0.5 equ n 1.10547126085
61 8 180 0.4 6 2.0 comp left 1.66995473037
62 8 90 0.8 6 1.5 equ n 2.05801306461
63 8 0 0.6 6 -1.5 comp right 2.24623490771
64 8 90 0.6 6 0.5 equ n 4.22194468218
65 8 270 0.8 6 -2.0 equ n 1.35240527813
66 8 180 0.2 6 -0.5 comp left 0.929050724953
67 8 90 0.2 6 -2.0 equ n 1.02316988708
68 8 90 0.6 6 0.0 comp down 1.64643490518
69 8 270 0.0 6 -1.5 comp down 1.15254310693
70 8 180 0.0 6 -1.5 equ n 1.75224345567
71 8 90 0.0 6 -2.0 equ n 1.56413353147
72 8 90 0.8 6 1.5 comp down 0.917321858346
73 8 270 0.4 6 0.5 equ n 1.48176853266
74 8 180 0.2 6 0.5 equ n 1.41122362192
75 8 0 0.0 6 -0.5 equ m 2.83420638985
76 8 0 0.8 6 0.5 equ n 1.05842471134
77 8 90 0.2 6 -1.5 comp up 1.5876115787
78 8 270 0.2 6 -0.5 comp up 1.71700166311
79 8 0 0.2 6 -2.0 equ m 1.21127981134
80 8 270 0.2 6 -2.0 equ n 1.07018117444
81 8 270 0.6 6 2.0 comp up 0.95258779783
82 8 90 0.2 6 -1.0 comp down 1.66996622883
83 8 180 0.6 6 -2.0 equ n 1.08195258549
84 8 0 0.2 6 -2.0 comp left 1.12896463939
85 8 270 0.4 6 1.0 comp up 1.12897805433
86 8 270 0.2 6 1.5 equ n 1.24659212818
87 8 180 0.8 6 1.0 comp left 1.3053706105
88 8 0 0.4 6 1.5 equ n 1.16426315805
89 8 180 0.8 6 1.0 equ n 1.32890500047
90 8 90 0.8 6 -1.5 comp up 0.952541803825
91 8 180 0.4 6 -1.5 equ m 1.19952066534
92 8 180 0.6 6 -0.5 comp right 1.08195411862
93 8 0 0.6 6 0.0 comp right 0.893792067771
94 8 180 0.2 6 -1.0 equ m 0.952606195468
95 8 90 0.6 6 0.0 equ m 1.25835242408
96 8 180 0.8 6 0.5 comp left 0.92905685748
97 8 270 0.4 6 1.0 equ n 1.1760341858
98 8 180 0.0 6 0.0 equ n 6.79741459765
99 8 180 0.4 6 0.5 equ n 2.11682795885
100 8 270 0.8 6 0.0 comp down 2.16391015367
101 8 90 0.6 6 2.0 equ n 3.35167128971
102 8 90 0.2 6 1.0 comp down 0.764382052643
103 8 180 0.6 6 -1.5 comp right 0.987824991113
104 8 0 0.2 6 0.5 comp right 1.10543753183
105 8 90 0.2 6 2.0 equ n 1.39944301202
106 8 180 0.4 6 -2.0 comp right 1.27004334552
107 8 270 0.2 6 -1.0 equ n 2.45787232282
108 8 180 0.6 6 1.5 equ n 0.776174927596
109 8 180 0.6 6 1.0 comp left 0.964343494328
110 8 0 0.8 6 -2.0 comp left 0.846949042054
111 8 0 0.4 6 0.5 equ n 1.16423249536
112 8 90 0.6 6 1.0 equ n 1.76403786388
113 8 90 0.2 6 -2.0 comp up 1.02314459038
114 8 180 0.2 6 -0.5 equ n 1.622948809
115 8 270 0.6 6 -1.0 equ m 2.31677560229
116 8 270 0.4 6 0.0 comp up 0.987862552865
117 8 270 0.0 6 -2.0 equ n 1.07017389202
118 8 0 0.6 6 -1.5 equ m 0.964344260865
119 8 0 0.4 6 -1.5 comp right 2.86949762615
120 8 90 0.6 6 -0.5 comp up 2.2227001345
121 8 90 0.4 6 2.0 comp down 0.823242174403
122 8 180 0.8 6 -1.5 equ m 1.14077476214
123 8 270 0.8 6 -1.0 equ m 0.952556368604
124 8 0 0.8 6 0.0 equ n 0.987844538584
125 8 270 0.0 6 -0.5 equ m 1.1289592734
126 8 90 0.4 6 0.5 equ m 1.94045839971
127 8 90 0.6 6 1.5 equ n 1.19953867962
128 8 0 0.6 6 1.5 equ n 1.03488303901
129 8 270 0.2 6 0.5 equ n 1.10545899573
130 8 90 0.2 6 -0.5 equ n 1.86988550931
131 8 0 0.4 6 1.0 comp right 1.69345845759
132 8 90 0.0 6 0.5 equ n 1.19957854116
133 8 90 0.0 6 1.5 equ n 0.77620444051
134 8 90 0.2 6 1.0 equ n 0.705612002639
135 8 0 0.4 6 0.0 equ n 1.6229020484
136 8 270 0.2 6 -0.5 equ m 1.0466483176
137 8 0 0.8 6 -2.0 equ m 0.987864469294
138 8 270 0.4 6 -1.0 comp up 2.35203042661
139 8 180 0.0 6 -1.0 equ m 1.43474498019
140 8 180 0.2 6 1.0 equ n 1.02317486977
141 8 0 0.2 6 -1.0 equ n 1.43472734914
142 8 0 0.0 6 0.5 comp right 1.70526321442
143 8 180 0.2 6 -2.0 equ n 1.19952143193
144 8 90 0.2 6 1.5 equ n 1.11723155668
145 8 90 0.8 6 -1.5 equ m 1.22306233761
146 8 180 0.2 6 0.5 comp left 0.799665239931
147 8 180 0.0 6 -2.0 comp right 0.834976023703
148 8 180 0.2 6 0.0 equ m 1.54056502931
149 8 0 0.0 6 1.0 equ n 1.28188566415
150 8 180 0.4 6 1.0 equ n 1.01136436372
151 8 90 0.8 6 2.0 equ n 2.10508184449
152 8 0 0.0 6 2.0 equ n 0.82324792369
153 8 180 0.6 6 0.0 equ m 1.16426737414
154 8 0 0.2 6 0.5 equ n 1.68170237786
155 8 180 0.6 6 2.0 comp left 0.776179527049
156 8 90 0.0 6 -0.5 equ m 1.03487307363
157 8 0 0.8 6 0.0 comp right 1.08190620813
158 8 270 0.4 6 -1.5 equ n 1.31720832968
159 8 0 0.8 6 2.0 comp right 1.03489913692
160 8 90 0.0 6 0.0 equ m 0.964271436969
161 8 270 0.6 6 -0.5 equ m 1.08194223687
162 8 90 0.8 6 -2.0 comp up 0.83499480458
163 8 0 0.6 6 -1.0 comp left 0.776142731833
164 8 90 0.6 6 -1.0 comp up 0.858504281088
165 8 270 0.4 6 1.5 equ n 1.21129897551
166 8 270 0.4 6 2.0 equ n 1.65816722135
167 8 90 0.4 6 -1.5 equ n 1.12898725312
168 8 270 0.0 6 0.0 comp down 1.62291661312
169 8 0 0.2 6 2.0 comp right 0.82321764424
170 8 180 0.0 6 2.0 equ n 2.52846667712
171 8 0 0.2 6 1.0 equ n 2.02277472155
172 8 90 0.8 6 2.0 comp down 0.905538948718
173 8 180 0.2 6 -1.0 comp right 0.835005536559
174 8 90 0.8 6 1.0 equ n 1.70523868426
175 8 270 0.2 6 2.0 comp up 1.22308303497
176 8 270 0.2 6 1.0 equ n 1.22305122245
177 8 0 0.2 6 -0.5 equ n 1.82286042377
178 8 180 0.0 6 1.5 comp left 0.988161130983
179 8 90 0.2 6 2.0 comp down 0.740864143881
180 8 180 0.2 6 -2.0 comp right 0.893767920963
181 8 180 0.4 6 2.0 equ n 1.02314267395
182 8 270 0.0 6 -0.5 comp down 1.19956704264
183 8 90 0.2 6 0.5 comp up 1.80094924057
184 8 270 0.0 6 -1.0 comp down 1.44655586954
185 8 0 0.6 6 -0.5 comp right 0.764365954732
186 8 180 0.6 6 -1.0 comp right 1.5641097679
187 8 90 0.4 6 1.5 equ n 1.39946524252
188 8 180 0.0 6 0.5 comp left 0.705607019889
189 8 270 0.2 6 -1.5 equ n 0.94083746738
190 8 270 0.0 6 -1.0 equ n 1.03492060082
191 8 180 0.0 6 1.0 equ n 1.45829163527
192 8 270 0.6 6 -1.5 comp down 0.75267924933
193 8 0 0.8 6 1.5 comp right 0.846708339872
194 8 0 0.0 6 -1.0 comp left 1.27009087271
195 8 270 0.4 6 -0.5 comp down 2.79892856855
196 8 270 0.8 6 1.5 comp up 0.823206145724
197 8 0 0.4 6 -2.0 comp left 0.717373448366
198 8 90 0.0 6 0.0 comp up 1.58762959304
199 8 270 0.8 6 -0.5 comp down 0.917439143173
200 8 90 0.4 6 1.0 comp down 0.964325096691
201 8 270 0.0 6 1.5 equ n 1.23482914933
202 8 90 0.4 6 -0.5 equ m 0.9055278335
203 8 0 0.6 6 1.0 equ n 1.21130549134
204 8 270 0.2 6 1.5 comp up 0.776187576004
205 8 270 0.6 6 1.0 comp up 0.893805099477
206 8 180 0.6 6 -1.5 equ m 2.04628956399
207 8 270 0.0 6 1.0 equ n 1.05842777767
208 8 0 0.0 6 -1.5 equ m 0.84670335718
209 8 270 0.4 6 -2.0 comp down 5.16272772325
210 8 270 0.4 6 -1.0 equ n 2.0110117427
211 8 90 0.8 6 1.0 comp down 1.56412164966
212 8 90 0.6 6 -1.5 equ m 1.2113254221
213 8 270 0.8 6 -2.0 comp down 0.776181826775
214 8 0 0.0 6 0.0 equ n 2.89304773073
215 8 90 0.6 6 -2.0 comp up 1.05841896217
216 8 270 0.8 6 -1.5 comp down 0.976091908407
217 8 180 0.6 6 -0.5 equ m 0.97608270956
218 8 180 0.0 6 -1.0 comp right 2.08159268205
219 8 0 0.0 6 0.0 comp right 1.45827285433
220 8 90 0.4 6 -0.5 comp up 1.3289061503
221 8 0 0.0 6 -2.0 comp left 0.917308060103
222 8 180 0.4 6 -1.0 equ m 1.11724727135
223 8 270 0.8 6 -1.5 equ n 1.95219033258
224 8 0 0.0 6 1.0 comp right 0.752632488788
225 8 180 0.8 6 0.0 equ n 2.31673382438
226 8 180 0.2 6 -1.5 comp left 0.917269731755
227 8 90 0.2 6 -1.0 equ m 1.38773254305
228 8 90 0.0 6 -0.5 comp down 1.83462991845
229 8 180 0.8 6 0.5 equ n 1.15254464012
230 8 90 0.0 6 -2.0 comp up 0.823213811382
231 8 90 0.4 6 -1.0 comp up 1.71699131437
232 8 180 0.0 6 0.5 equ n 1.54060987348
233 8 270 0.2 6 0.5 comp up 0.834961458924
234 8 90 0.4 6 0.5 comp down 1.07017619174
235 8 90 0.4 6 0.0 equ m 1.44653708866
236 8 270 0.0 6 -2.0 comp down 1.79934903083
237 8 90 0.4 6 -1.5 comp up 0.835010135954
238 8 90 0.4 6 1.5 comp down 0.987869451987
239 8 0 0.8 6 0.5 comp right 0.729145242716
240 8 90 0.0 6 1.5 comp down 0.952542570361
241 8 270 0.8 6 1.0 equ n 1.05841397942
242 8 270 0.2 6 2.0 equ m 1.41123205418
243 8 0 0.2 6 -1.5 comp left 1.09373012913
244 8 0 0.2 6 0.0 equ m 0.917281996808
245 8 180 0.8 6 2.0 comp left 0.846711022838
246 8 180 0.4 6 0.0 equ n 1.54057499464
247 8 90 0.4 6 2.0 equ n 1.27009163931
248 8 0 0.0 6 -1.0 equ n 2.2696903412
249 8 0 0.2 6 -0.5 comp right 0.917348304938
250 8 180 0.8 6 -0.5 comp right 1.14074256632
251 8 90 0.8 6 0.0 comp down 1.12897537131
252 8 0 0.8 6 1.0 comp right 1.91673658404
253 8 0 0.8 6 -1.5 equ m 1.02316413779
254 8 270 0.0 6 -1.5 equ n 1.69344389281
255 8 180 0.2 6 -1.5 equ m 1.29362411285
256 8 270 0.2 6 -1.5 comp down 1.17602077092
257 8 270 0.4 6 0.5 comp up 0.95257514948
258 8 0 0.8 6 -1.5 comp left 0.987833423365
259 8 90 0.8 6 0.5 equ m 1.48177121562
260 8 0 0.6 6 -2.0 equ m 1.28186649998
261 8 90 0.0 6 2.0 comp down 3.98682232073
262 8 270 0.2 6 1.0 comp up 0.823210361821
263 8 270 0.6 6 -2.0 equ n 2.57549099613
264 8 270 0.4 6 -1.5 comp down 1.79932718369
265 8 0 0.0 6 -0.5 comp right 0.729121862387
266 8 180 0.0 6 -0.5 comp left 2.39906701067
267 8 180 0.4 6 1.5 equ n 1.45827017137
268 8 270 0.0 6 1.5 comp up 1.03489530412
269 8 90 0.8 6 -0.5 comp up 1.11723960564
270 8 0 0.0 6 2.0 comp right 0.905512885423
271 8 0 0.4 6 1.0 equ m 1.3053744433
272 8 270 0.6 6 -2.0 comp down 0.823204612592
273 8 0 0.6 6 0.5 comp right 0.870235447364
274 8 180 0.4 6 -2.0 equ n 1.81108249683
275 8 270 0.6 6 0.5 equ m 1.70523408486
276 8 270 0.2 6 -1.0 comp up 2.41084302112
277 8 0 0.0 6 1.5 comp right 0.799726948666
278 8 270 0.0 6 0.5 equ m 1.2230642541
279 8 270 0.8 6 1.5 equ n 0.97609880747
280 8 180 0.6 6 1.0 equ n 0.834950343648
281 8 180 0.6 6 1.5 comp left 0.682101376238
282 8 180 0.2 6 1.5 comp left 0.799672139052
283 8 180 0.4 6 0.0 comp left 0.987864852592
284 8 90 0.4 6 -2.0 equ n 0.976084242691
285 8 270 0.8 6 -0.5 equ m 1.07020378817
286 8 270 0.8 6 0.0 equ m 0.858497765264
287 8 180 0.4 6 0.5 comp left 0.682112874754
288 8 0 0.4 6 -1.5 equ m 2.6576371399
289 8 270 0.6 6 -1.0 comp down 1.16427810607
290 8 270 0.6 6 0.0 equ m 0.846782313602
291 8 270 0.0 6 1.0 comp up 0.776173011225
292 8 0 0.8 6 1.5 equ n 1.39946294279
293 8 0 0.2 6 1.5 equ n 1.55235560454
294 8 0 0.4 6 -1.0 equ m 0.8937686875
295 8 0 0.2 6 1.0 comp right 0.717383030395
296 8 180 0.0 6 1.0 comp left 0.729183954361
297 8 180 0.2 6 1.0 comp left 0.67033111502
298 8 90 0.8 6 0.5 comp down 1.54058572662
299 8 270 0.0 6 2.0 equ n 1.09373357869
300 8 90 0.2 6 0.0 equ m 0.811419019999
301 8 90 0.0 6 1.0 equ m 0.787976618158
302 8 0 0.6 6 0.0 equ n 1.50533780141
303 8 0 0.4 6 0.0 comp right 1.14074716571
304 8 0 0.0 6 1.5 equ n 0.999619782495
305 8 90 0.2 6 0.0 comp down 1.10547892645
306 8 90 0.8 6 -1.0 comp up 1.21130319161
307 8 0 0.6 6 2.0 comp right 1.17601923778
308 8 180 0.6 6 0.5 comp left 0.764445677807
309 8 180 0.6 6 2.0 equ n 1.30515865458
310 8 90 0.2 6 0.5 equ m 3.25755519385
311 8 180 0.8 6 -1.0 comp right 3.03415211692
312 8 180 0.0 6 0.0 comp left 0.917324541369
313 8 0 0.6 6 -2.0 comp left 1.023154939
314 8 180 0.2 6 0.0 comp left 1.51710346324
315 8 0 0.4 6 2.0 equ n 1.04662417073
316 8 270 0.6 6 1.5 comp up 0.71733511996
317 8 0 0.6 6 1.5 comp right 0.787941356073
318 8 0 0.6 6 -1.0 equ m 1.04663068656
319 8 270 0.8 6 1.0 comp up 0.999619015958
320 8 270 0.6 6 0.5 comp up 0.92907832138
321 8 270 0.0 6 0.5 comp up 0.658545905666
322 8 180 0.0 6 -2.0 equ m 1.05837641767
323 8 180 0.8 6 0.0 comp right 1.1642715903
324 8 180 0.8 6 -1.0 equ m 1.09372706286
325 8 0 0.8 6 -0.5 equ m 1.48181069386
326 8 90 0.0 6 -1.5 equ m 1.65819328465
327 8 0 0.8 6 -0.5 comp right 0.893767537607
328 8 270 0.0 6 0.0 equ m 2.28148129978
329 8 90 0.6 6 -1.5 comp up 0.87026112742
330 8 90 0.8 6 -0.5 equ m 1.90514339984
331 8 0 0.4 6 -0.5 equ m 1.57586163149
332 8 270 0.4 6 -2.0 equ m 0.870280674892
333 8 270 0.2 6 0.0 comp up 1.54058151046
334 8 90 0.4 6 1.0 equ n 1.0349363155
335 8 180 0.4 6 -1.5 comp right 1.04667859699
336 8 270 0.6 6 1.5 equ n 1.74054103572
337 8 90 0.0 6 -1.0 comp up 1.17598742526
338 8 270 0.4 6 2.0 comp up 0.69385477301
339 8 180 0.4 6 -0.5 comp right 1.05842547794
340 8 270 0.2 6 -2.0 comp down 1.90960443963
341 8 0 0.4 6 2.0 comp right 0.693859372404
342 8 90 0.8 6 -2.0 equ n 1.29362257972
343 8 270 0.8 6 0.5 equ m 0.940838617214
344 8 180 0.4 6 1.5 comp left 0.940817919909
345 8 180 0.0 6 -1.5 comp right 1.08191042428
346 8 270 0.6 6 -1.5 equ n 1.4582931684
347 8 0 0.4 6 -2.0 equ n 1.34066452977
348 8 180 0.0 6 1.5 equ n 0.964314748009
349 8 270 0.6 6 -0.5 comp down 1.57586393121
350 8 0 0.4 6 0.5 comp right 0.823211128416
351 8 270 0.4 6 -0.5 equ m 2.28146175231
352 8 270 0.4 6 0.0 equ m 0.776163429138
353 8 270 0.8 6 -1.0 comp down 1.22306118783
354 8 0 0.6 6 -0.5 equ m 1.82261857169
355 8 90 0.2 6 -0.5 comp up 1.35242635873
356 8 270 0.8 6 2.0 equ n 3.65744051529
357 8 90 0.6 6 2.0 comp down 0.752678866091
358 8 0 0.4 6 -1.0 comp right 0.952576682612
359 8 180 0.8 6 -2.0 comp right 1.01138391119
360 8 90 0.8 6 -1.0 equ n 1.11724420503
