trial size orLarge phase dur orSmall task response rt
1 8 270 0.2 6 -0.5 comp down 2.4931367292
2 8 90 0.4 6 -0.5 equ m 6.42104910134
3 8 180 0.2 6 1.0 comp left 1.01134519954
4 8 270 0.6 6 -1.5 equ n 3.01058169827
5 8 270 0.2 6 2.0 comp up 1.2700774578
6 8 90 0.2 6 0.0 comp down 1.42299464974
7 8 90 0.2 6 -2.0 comp down 1.14073720033
8 8 180 0.6 6 2.0 equ n 2.59902538604
9 8 270 0.4 6 -0.5 equ n 2.77539532844
10 8 180 0.2 6 2.0 equ n 2.03448787346
11 8 180 0.0 6 1.5 equ n 1.96392073232
12 8 270 0.0 6 1.5 comp up 1.02315417246
13 8 270 0.0 6 -2.0 comp down 1.32892301478
14 8 0 0.8 6 -2.0 comp left 1.01139272674
15 8 90 0.8 6 -0.5 equ m 2.57545803368
16 8 90 0.8 6 1.5 equ n 1.9992303662
17 8 90 0.4 6 0.0 comp down 3.37520031369
18 8 270 0.0 6 1.5 equ n 2.52846016129
19 8 180 0.2 6 2.0 comp left 1.10545899573
20 8 270 0.8 6 1.5 equ n 2.0697775766
21 8 270 0.8 6 -0.5 equ n 3.03411800464
22 8 270 0.8 6 -1.0 equ m 1.74049274196
23 8 90 0.2 6 1.0 comp down 0.976097657636
24 8 0 0.6 6 0.5 comp right 0.952537970967
25 8 90 0.8 6 1.0 equ n 2.65781268387
26 8 90 0.0 6 0.5 equ n 2.08158080024
27 8 270 0.4 6 2.0 equ n 2.32848990412
28 8 180 0.6 6 -2.0 equ n 1.94045686658
29 8 180 0.6 6 -1.5 equ n 1.75219822823
30 8 90 0.2 6 -0.5 equ m 2.65782686535
31 8 90 0.8 6 -0.5 comp down 1.16427848936
32 8 90 0.2 6 2.0 equ n 1.86970996534
33 8 0 0.4 6 1.0 comp right 1.12898648655
34 8 270 0.2 6 1.0 equ n 1.94043501941
35 8 180 0.6 6 0.5 comp left 1.01137241267
36 8 180 0.8 6 -1.0 equ n 1.84633425489
37 8 90 0.6 6 2.0 comp down 1.45830160062
38 8 90 0.0 6 -0.5 equ n 2.36378229022
39 8 0 0.4 6 -2.0 equ n 1.6111260379
40 8 270 0.6 6 0.5 equ n 1.91691596081
41 8 180 0.6 6 -2.0 comp right 1.01135938105
42 8 270 0.4 6 -1.0 comp down 1.76405741132
43 8 90 0.0 6 -1.5 comp up 0.964323180262
44 8 0 0.4 6 1.5 comp right 0.846742835362
45 8 90 0.8 6 -1.5 equ n 2.68130337945
46 8 90 0.8 6 0.0 comp down 3.70452117699
47 8 270 0.2 6 0.0 equ m 2.32850293576
48 8 0 0.2 6 1.5 equ n 1.63469913948
49 8 90 0.6 6 1.0 comp down 0.964300566528
50 8 90 0.0 6 1.0 comp down 0.811451982387
51 8 180 0.0 6 1.0 comp left 1.04664946743
52 8 90 0.0 6 1.5 comp up 0.752632105461
53 8 90 0.6 6 -2.0 comp down 0.905563095585
54 8 0 0.0 6 -1.5 equ n 2.76366032934
55 8 0 0.2 6 -0.5 comp right 1.75225993691
56 8 0 0.2 6 -0.5 equ n 2.12860051979
57 8 270 0.4 6 0.0 equ n 1.98744860644
58 8 90 0.8 6 -1.5 comp up 1.02313769123
59 8 0 0.2 6 0.0 comp right 1.1995448122
60 8 180 0.4 6 1.0 comp left 0.870289490384
61 8 0 0.2 6 -1.0 comp left 0.834985222493
62 8 270 0.8 6 0.5 equ n 2.32851021815
63 8 270 0.6 6 -0.5 comp down 1.43476299458
64 8 180 0.2 6 0.0 equ n 2.46962456973
65 8 180 0.8 6 1.5 comp left 0.905592225172
66 8 180 0.8 6 -2.0 equ n 2.15209658135
67 8 90 0.2 6 -1.5 comp up 1.03491868443
68 8 270 0.2 6 1.5 equ n 1.83459273991
69 8 0 0.4 6 2.0 equ n 1.46999865468
70 8 270 0.4 6 -2.0 comp down 0.870239280222
71 8 180 0.0 6 0.0 comp left 1.34069634226
72 8 180 0.6 6 2.0 comp left 0.787921808573
73 8 0 0.2 6 -1.5 comp left 1.17602575361
74 8 180 0.8 6 0.5 equ n 1.77580467553
75 8 180 0.8 6 -1.5 comp right 0.834944594419
76 8 0 0.6 6 1.0 comp right 0.893787085079
77 8 0 0.6 6 -1.0 equ m 1.75224460557
78 8 90 0.8 6 2.0 comp down 0.882037137897
79 8 270 0.0 6 1.0 equ n 1.68149272163
80 8 270 0.0 6 2.0 equ n 1.76400681786
81 8 180 0.6 6 -1.0 comp right 1.17602115421
82 8 0 0.2 6 0.0 equ n 2.0815363393
83 8 270 0.2 6 -0.5 equ n 1.79933868218
84 8 270 0.6 6 -1.5 comp down 1.31713167293
85 8 0 0.8 6 -1.0 comp left 1.17604261811
86 8 90 0.2 6 1.5 equ n 2.45787807208
87 8 270 0.4 6 2.0 comp up 0.999596018926
88 8 270 0.0 6 -1.5 comp down 0.964315897872
89 8 270 0.4 6 -1.5 comp down 0.952576682641
90 8 270 0.8 6 -1.5 equ n 2.25795917489
91 8 0 0.4 6 -1.0 comp left 0.787945955468
92 8 270 0.2 6 0.0 comp down 0.858454454195
93 8 270 0.0 6 -1.5 equ n 2.38731744673
94 8 270 0.0 6 1.0 comp up 1.03486924083
95 8 0 0.6 6 1.0 equ n 2.29326765894
96 8 180 0.4 6 -1.0 equ m 2.16385496082
97 8 270 0.4 6 1.0 equ n 1.57586469775
98 8 90 0.0 6 -0.5 comp up 1.05844464214
99 8 0 0.6 6 0.5 equ n 2.15212111152
100 8 0 0.0 6 -1.5 comp left 1.34081707668
101 8 0 0.0 6 0.0 equ n 4.43362234207
102 8 90 0.0 6 -1.0 equ n 2.45789033713
103 8 90 0.6 6 0.0 comp down 2.68130836214
104 8 180 0.6 6 1.0 comp left 0.75263593829
105 8 270 0.0 6 0.0 equ m 1.9051660136
106 8 0 0.8 6 1.0 equ n 1.74052225481
107 8 180 0.4 6 -2.0 comp right 0.799678654876
108 8 0 0.4 6 -1.0 equ m 1.64645100309
109 8 180 0.6 6 1.0 equ n 1.3994602598
110 8 0 0.4 6 2.0 comp right 0.893756422389
111 8 90 0.4 6 -1.5 equ m 1.71695298603
112 8 90 0.4 6 0.0 equ m 1.30536562781
113 8 90 0.2 6 -2.0 equ n 2.03452351887
114 8 270 0.4 6 0.5 equ n 2.21091607504
115 8 0 0.8 6 -0.5 comp right 1.0113770121
116 8 270 0.4 6 -0.5 comp down 1.10545707931
117 8 90 0.6 6 -1.5 equ n 2.3637780741
118 8 0 0.2 6 1.5 comp right 0.764436862228
119 8 270 0.0 6 -0.5 comp down 4.09256149695
120 8 90 0.2 6 -0.5 comp down 2.59901043796
121 8 180 0.6 6 0.0 equ n 2.10507379554
122 8 0 0.4 6 -1.5 equ m 2.77541027655
123 8 0 0.8 6 -1.0 equ n 4.3160009858
124 8 90 0.4 6 -0.5 comp up 1.17604300135
125 8 0 0.6 6 -1.5 equ n 2.77544055594
126 8 180 0.0 6 -0.5 equ m 7.56184494408
127 8 180 0.0 6 2.0 equ n 1.24659021178
128 8 0 0.6 6 -0.5 equ n 2.19916421143
129 8 90 0.6 6 -2.0 equ n 2.3165655628
130 8 0 0.8 6 2.0 comp right 1.31714700427
131 8 180 0.4 6 1.0 equ n 1.82286540646
132 8 90 0.0 6 -2.0 equ n 1.69344005996
133 8 270 0.8 6 1.0 equ n 1.49361775033
134 8 0 0.6 6 1.5 equ n 1.30538900811
135 8 180 0.8 6 0.5 comp left 0.858516929438
136 8 0 0.0 6 -0.5 equ n 1.91690791186
137 8 90 0.2 6 1.0 equ n 1.81108594639
138 8 270 0.2 6 -1.0 equ m 2.02275939018
139 8 90 0.4 6 1.5 equ n 1.32890844997
140 8 180 0.8 6 -2.0 comp right 1.03487192382
141 8 0 0.2 6 0.5 equ m 1.85811601463
142 8 270 0.6 6 -2.0 comp down 1.96394181292
143 8 0 0.8 6 1.0 comp right 0.823213811382
144 8 90 0.8 6 0.5 comp down 1.16425664222
145 8 90 0.6 6 0.5 comp down 0.940770009416
146 8 270 0.4 6 -2.0 equ n 3.55158635403
147 8 90 0.2 6 1.5 comp down 0.823215727811
148 8 90 0.6 6 1.5 equ n 2.01096114921
149 8 90 0.6 6 1.0 equ n 1.84636031819
150 8 0 0.8 6 0.5 equ n 2.55197040434
151 8 180 0.0 6 1.0 equ n 2.16387335846
152 8 90 0.8 6 -1.0 comp up 0.976101873763
153 8 90 0.4 6 -1.0 comp up 1.19954366237
154 8 180 0.8 6 -1.5 equ m 2.24620807785
155 8 0 0.2 6 0.5 comp right 0.811477279116
156 8 180 0.4 6 0.0 equ n 2.05801383118
157 8 270 0.8 6 0.0 equ m 2.16390862054
158 8 180 0.4 6 -0.5 comp left 1.83440493088
159 8 0 0.8 6 -0.5 equ n 2.99885819765
160 8 0 0.4 6 1.5 equ n 1.51709656414
161 8 0 0.4 6 0.0 equ n 1.29362679584
162 8 0 0.6 6 2.0 comp right 0.811479195574
163 8 180 0.2 6 0.5 equ n 3.18704669506
164 8 0 0.2 6 1.0 equ n 1.99924033158
165 8 180 0.4 6 1.5 equ n 1.07018462394
166 8 180 0.2 6 -2.0 comp right 0.870253078436
167 8 0 0.6 6 -1.5 comp left 0.870259210991
168 8 180 0.2 6 0.5 comp left 1.11719859426
169 8 0 0.0 6 0.0 comp right 0.870251162007
170 8 0 0.2 6 2.0 equ n 1.77577094658
171 8 180 0.2 6 -0.5 comp left 0.905514035258
172 8 0 0.8 6 -2.0 equ n 1.84635801849
173 8 90 0.0 6 -1.0 comp down 1.14079507618
174 8 90 0.8 6 2.0 equ n 2.26970298955
175 8 90 0.2 6 -1.5 equ n 3.14002544238
176 8 180 0.4 6 -0.5 equ m 1.62288096777
177 8 180 0.4 6 -1.5 comp right 0.799690536689
178 8 180 0.8 6 1.0 comp left 0.987649447139
179 8 270 0.6 6 1.5 comp up 0.929071805527
180 8 180 0.6 6 1.5 comp left 0.787910693354
181 8 0 0.0 6 1.0 equ n 2.17559647578
182 8 0 0.0 6 1.5 equ n 2.16388409038
183 8 180 0.0 6 -1.0 comp right 0.787965119642
184 8 270 0.2 6 -1.5 equ m 2.23443015094
185 8 180 0.6 6 -1.0 equ n 1.97566301384
186 8 180 0.0 6 -2.0 equ n 1.05841704569
187 8 90 0.4 6 2.0 equ n 2.17561717311
188 8 180 0.0 6 0.0 equ m 1.4582713212
189 8 0 0.0 6 1.0 comp right 0.929057240748
190 8 90 0.4 6 -1.5 comp up 1.49355220882
191 8 180 0.6 6 -1.5 comp right 0.823234892014
192 8 270 0.0 6 2.0 comp up 0.752662768151
193 8 0 0.8 6 -1.5 comp left 0.88201145787
194 8 270 0.2 6 1.0 comp up 0.952577065909
195 8 270 0.6 6 -1.0 equ m 4.98632941782
196 8 270 0.6 6 -2.0 equ n 1.7169725335
197 8 180 0.4 6 0.5 equ n 1.02314229062
198 8 90 0.8 6 0.0 equ m 1.35240489486
199 8 90 0.0 6 -2.0 comp up 0.834994038014
200 8 0 0.2 6 -1.5 equ n 1.47004579857
201 8 270 0.8 6 0.0 comp up 1.01138467778
202 8 90 0.4 6 -2.0 equ m 1.86980463643
203 8 270 0.8 6 -1.5 comp up 0.987885933224
204 8 0 0.6 6 0.0 comp right 0.870253845002
205 8 180 0.6 6 1.5 equ n 1.09367455298
206 8 270 0.4 6 -1.0 equ n 1.38775247382
207 8 0 0.8 6 0.5 comp right 0.764410798962
208 8 90 0.4 6 -1.0 equ m 1.35243287456
209 8 0 0.0 6 2.0 equ n 1.31718188309
210 8 270 0.8 6 2.0 comp up 0.858506580786
211 8 180 0.4 6 0.5 comp left 1.12897997073
212 8 180 0.8 6 0.0 comp left 3.58689177179
213 8 180 0.4 6 -1.0 comp right 0.964340044768
214 8 270 0.2 6 -2.0 comp down 1.2818990791
215 8 0 0.8 6 0.0 equ m 1.09366343776
216 8 90 0.6 6 0.0 equ n 2.3050068742
217 8 90 0.8 6 -1.0 equ m 10.2549293167
218 8 90 0.2 6 -1.0 equ n 1.6463992598
219 8 90 0.8 6 -2.0 comp up 1.49355527508
220 8 180 0.8 6 -0.5 equ m 1.44651792446
221 8 270 0.6 6 -1.0 comp down 1.44653133937
222 8 180 0.4 6 2.0 comp left 0.95255905157
223 8 270 0.0 6 -1.0 comp up 1.01137892852
224 8 180 0.2 6 1.5 comp left 0.811478812277
225 8 270 0.0 6 -2.0 equ n 2.19917226039
226 8 270 0.0 6 0.5 equ m 1.01137624553
227 8 180 0.0 6 -1.5 equ n 1.70525133261
228 8 180 0.8 6 -1.0 comp right 1.03491523489
229 8 0 0.6 6 -1.0 comp left 1.10546244527
230 8 270 0.4 6 1.5 equ n 1.21132235584
231 8 0 0.6 6 -2.0 comp left 0.764407349401
232 8 270 0.4 6 -1.5 equ m 1.27010198799
233 8 270 0.6 6 2.0 equ n 0.940821752738
234 8 270 0.6 6 1.0 equ n 2.09334799522
235 8 180 0.4 6 1.5 comp left 0.776171478094
236 8 90 0.4 6 1.5 comp down 1.07017657498
237 8 270 0.2 6 -2.0 equ m 2.39908732468
238 8 0 0.0 6 1.5 comp right 1.17604798407
239 8 90 0.6 6 -0.5 equ m 1.97567642879
240 8 90 0.6 6 -1.0 equ m 0.905541631684
241 8 270 0.2 6 2.0 equ n 1.0584266278
242 8 270 0.8 6 1.5 comp up 0.905550447234
243 8 270 0.6 6 -0.5 equ m 1.17601463836
244 8 90 0.6 6 2.0 equ n 1.04668281312
245 8 270 0.6 6 1.0 comp up 0.764419231215
246 8 270 0.4 6 0.5 comp up 0.846733253275
247 8 90 0.8 6 -2.0 equ m 2.04629837952
248 8 270 0.2 6 0.5 equ n 1.50534125094
249 8 90 0.6 6 -1.0 comp up 0.987836872897
250 8 0 0.0 6 -2.0 equ m 2.37554105296
251 8 180 0.8 6 0.0 equ n 2.16388332381
252 8 270 0.0 6 -0.5 equ m 1.3171489207
253 8 180 0.0 6 -0.5 comp left 0.870282207994
254 8 0 0.6 6 -2.0 equ n 1.7052153039
255 8 270 0.8 6 2.0 equ n 1.1877661187
256 8 270 0.8 6 -1.0 comp down 1.04667284776
257 8 180 0.0 6 2.0 comp left 0.623293381097
258 8 180 0.2 6 -1.5 equ m 1.24659557774
259 8 270 0.8 6 -0.5 comp up 0.764390484896
260 8 90 0.0 6 2.0 equ n 1.07018539053
261 8 180 0.0 6 0.5 comp left 0.976098424202
262 8 180 0.2 6 -1.5 comp right 1.32891496579
263 8 180 0.4 6 2.0 equ n 1.24659366134
264 8 90 0.2 6 2.0 comp down 0.846693775035
265 8 90 0.0 6 -1.5 equ n 2.02275249103
266 8 270 0.6 6 2.0 comp up 1.11722734052
267 8 180 0.6 6 -0.5 comp left 0.988071059284
268 8 90 0.6 6 -0.5 comp up 3.0106472398
269 8 0 0.0 6 0.5 comp right 0.752648203372
270 8 90 0.2 6 -1.0 comp up 1.11723615607
271 8 270 0.2 6 0.5 comp up 1.16420106607
272 8 0 0.4 6 -1.5 comp left 1.86987286093
273 8 180 0.0 6 -2.0 comp left 1.07016929259
274 8 0 0.6 6 -0.5 comp right 0.82324102454
275 8 180 0.2 6 -1.0 equ n 1.35242022618
276 8 180 0.2 6 1.5 equ n 0.905552746932
277 8 0 0.8 6 1.5 equ n 1.14073413407
278 8 0 0.4 6 -2.0 comp left 1.24656568162
279 8 0 0.6 6 0.0 equ m 1.31717115117
280 8 90 0.2 6 0.0 equ m 1.30537061047
281 8 0 0.6 6 2.0 equ n 1.04663950205
282 8 90 0.0 6 2.0 comp down 0.787912226486
283 8 0 0.2 6 2.0 comp right 0.658571969019
284 8 270 0.6 6 0.0 comp up 0.893772903597
285 8 90 0.4 6 1.0 comp down 1.02313845779
286 8 270 0.8 6 1.0 comp up 0.846717538632
287 8 270 0.4 6 1.5 comp up 0.69383484227
288 8 180 0.2 6 -1.0 comp right 1.66992713392
289 8 270 0.8 6 0.5 comp up 0.858507730649
290 8 0 0.0 6 -0.5 comp left 0.870273392473
291 8 270 0.6 6 1.5 equ n 2.16386799249
292 8 90 0.0 6 0.0 equ n 1.14073835019
293 8 180 0.2 6 0.0 comp right 0.858533410646
294 8 90 0.8 6 1.5 comp down 1.09367646941
295 8 90 0.2 6 0.5 comp down 0.776169561694
296 8 0 0.8 6 0.0 comp right 1.0232193307
297 8 0 0.4 6 0.5 equ n 1.04666211581
298 8 180 0.4 6 -2.0 equ m 1.70523906749
299 8 90 0.0 6 1.5 equ n 0.999655811174
300 8 270 0.6 6 0.0 equ m 1.22309415019
301 8 0 0.0 6 0.5 equ n 1.03486119187
302 8 270 0.0 6 0.5 comp up 0.90553319946
303 8 90 0.4 6 0.5 comp down 0.987859103363
304 8 90 0.2 6 0.5 equ n 1.01138851061
305 8 180 0.6 6 0.0 comp left 0.776200224354
306 8 270 0.6 6 0.5 comp up 0.693856306141
307 8 180 0.4 6 0.0 comp left 0.917319941887
308 8 180 0.0 6 0.5 equ n 2.08157121815
309 8 180 0.2 6 1.0 equ n 0.929069889098
310 8 0 0.0 6 -2.0 comp left 0.834996337711
311 8 90 0.6 6 0.5 equ m 2.23442861781
312 8 0 0.2 6 -2.0 equ n 1.88164388874
313 8 180 0.8 6 -0.5 comp right 1.01133715059
314 8 0 0.2 6 1.0 comp right 0.752659701888
315 8 270 0.2 6 1.5 comp up 0.823246773798
316 8 270 0.2 6 -1.0 comp down 0.929035010282
317 8 90 0.4 6 0.5 equ m 1.25812628664
318 8 0 0.4 6 -0.5 comp right 0.92910016852
319 8 0 0.8 6 -1.5 equ m 0.893792067771
320 8 270 0.4 6 1.0 comp up 0.834951876808
321 8 90 0.4 6 2.0 comp down 0.940804121667
322 8 180 0.6 6 0.5 equ n 2.5989859078
323 8 0 0.0 6 -1.0 comp left 0.893749139999
324 8 0 0.8 6 2.0 equ n 1.08196446727
325 8 90 0.8 6 1.0 comp down 0.917332590267
326 8 90 0.4 6 -2.0 comp up 0.834959159198
327 8 180 0.2 6 -2.0 equ n 1.18776228587
328 8 90 0.8 6 0.5 equ m 1.11719667786
329 8 180 0.8 6 1.5 equ n 0.811479962111
330 8 0 0.4 6 0.5 comp right 0.65855395468
331 8 180 0.4 6 -1.5 equ m 1.18780406378
332 8 90 0.0 6 1.0 equ n 1.47002778423
333 8 0 0.4 6 1.0 equ n 1.04665559999
334 8 0 0.4 6 -0.5 equ n 2.23446541306
335 8 90 0.4 6 1.0 equ n 2.23446043037
336 8 270 0.8 6 -2.0 comp down 0.882021039957
337 8 90 0.6 6 -1.5 comp up 0.858483583783
338 8 180 0.6 6 -0.5 equ m 1.14075329827
339 8 180 0.8 6 2.0 comp left 0.823189664516
340 8 90 0.6 6 1.5 comp down 0.976125254063
341 8 90 0.0 6 0.0 comp up 2.65781306714
342 8 90 0.0 6 0.5 comp down 0.858519229165
343 8 270 0.2 6 -1.5 comp down 0.870236597257
344 8 270 0.0 6 0.0 comp down 1.21127827821
345 8 0 0.0 6 2.0 comp right 0.78796167011
346 8 0 0.2 6 -2.0 comp left 0.858465569443
347 8 180 0.0 6 1.5 comp left 0.799709700863
348 8 0 0.4 6 0.0 comp right 0.776195624989
349 8 270 0.8 6 -2.0 equ m 1.811081347
350 8 270 0.0 6 -1.0 equ m 0.882009924739
351 8 180 0.2 6 -0.5 equ m 1.89318073017
352 8 0 0.0 6 -1.0 equ m 0.787935223518
353 8 180 0.8 6 2.0 equ n 0.870244646183
354 8 0 0.2 6 -1.0 equ m 0.917291578895
355 8 180 0.0 6 -1.0 equ m 2.63427944377
356 8 180 0.0 6 -1.5 comp left 1.6817134931
357 8 180 0.8 6 1.0 equ n 1.3171535201
358 8 0 0.6 6 1.5 comp right 0.729099248652
359 8 0 0.8 6 1.5 comp right 0.682069563685
360 8 270 0.4 6 0.0 comp up 0.752673500101
