trial size orLarge phase dur orSmall task response rt
1 8 270 0.4 6 0.0 comp down 0.98786787238
2 8 90 0.0 6 -1.0 comp up 0.905543569374
3 8 90 0.0 6 0.5 comp down 0.811458925429
4 8 90 0.4 6 -1.0 equ n 1.37591006289
5 8 0 0.0 6 0.0 comp left 2.28151879075
6 8 90 0.2 6 -2.0 equ n 0.929089931365
7 8 270 0.8 6 0.5 comp up 1.47005564918
8 8 270 0.0 6 1.5 comp up 0.823224632362
9 8 0 0.8 6 1.5 comp right 0.65854957967
10 8 180 0.0 6 1.0 equ n 1.70522452274
11 8 90 0.4 6 2.0 comp down 0.787938243549
12 8 270 0.0 6 0.5 equ n 1.08191993708
13 8 0 0.8 6 0.0 comp right 0.882052400458
14 8 90 0.8 6 -2.0 equ n 0.940827658476
15 8 270 0.6 6 0.5 comp up 1.23482659984
16 8 0 0.2 6 1.0 comp right 0.646795371294
17 8 180 0.4 6 -1.0 equ n 1.4347477964
18 8 0 0.6 6 1.0 equ n 5.51554777401
19 8 90 0.6 6 -1.5 equ n 1.04666344452
20 8 180 0.6 6 -1.5 equ n 0.870261013414
21 8 270 0.4 6 -1.5 equ n 0.846730749403
22 8 270 0.6 6 -2.0 equ n 1.04664198054
23 8 0 0.6 6 0.0 comp right 0.870257947132
24 8 180 0.0 6 1.5 comp left 1.37595797354
25 8 180 0.6 6 1.5 comp left 0.799708933191
26 8 0 0.0 6 0.5 comp right 0.705651119212
27 8 270 0.8 6 1.5 equ n 0.917265965076
28 8 0 0.2 6 -2.0 comp left 0.9643471905
29 8 180 0.2 6 0.0 comp left 1.55233319139
30 8 0 0.4 6 -0.5 comp right 1.04667647621
31 8 270 0.0 6 -1.0 equ n 0.952572284721
32 8 0 0.2 6 -1.0 comp left 0.882027103632
33 8 270 0.2 6 2.0 equ n 0.999602533209
34 8 0 0.8 6 -2.0 comp left 0.98787592137
35 8 270 0.8 6 1.5 comp up 0.78797197265
36 8 270 0.4 6 -1.0 equ m 2.61076387598
37 8 90 0.4 6 2.0 equ n 1.18779596807
38 8 270 0.0 6 -2.0 equ n 0.740898412931
39 8 90 0.2 6 0.5 comp up 1.38773441246
40 8 0 0.4 6 2.0 comp right 0.764416411814
41 8 270 0.0 6 2.0 comp up 0.764317524222
42 8 270 0.6 6 1.0 equ n 1.85812543623
43 8 270 0.0 6 1.0 comp up 0.976130528554
44 8 0 0.8 6 2.0 comp right 0.705646519789
45 8 0 0.6 6 1.5 comp right 0.976128612128
46 8 90 0.6 6 -2.0 equ n 0.94081769306
47 8 0 0.8 6 -1.5 comp left 0.952601031114
48 8 90 0.6 6 -0.5 equ m 1.15252606052
49 8 90 0.6 6 0.0 equ m 1.21130630125
50 8 270 0.2 6 0.5 comp down 1.35244802365
51 8 0 0.8 6 -2.0 equ n 0.870267529263
52 8 0 0.2 6 -0.5 equ n 2.24619598984
53 8 180 0.4 6 -2.0 comp right 0.635029281076
54 8 90 0.2 6 2.0 equ n 1.38794330291
55 8 270 0.4 6 0.5 comp up 1.12900154579
56 8 180 0.4 6 0.5 comp right 0.870324255478
57 8 90 0.2 6 0.5 equ m 1.24639261517
58 8 90 0.4 6 0.5 comp down 1.11719636048
59 8 270 0.6 6 1.5 equ n 1.2113128171
60 8 180 0.8 6 -1.5 comp right 0.77617790261
61 8 90 0.0 6 2.0 comp down 0.823219266369
62 8 90 0.2 6 1.0 equ m 1.4465012382
63 8 270 0.2 6 -1.0 equ n 0.976121329708
64 8 180 0.6 6 1.0 equ n 1.04667532636
65 8 0 0.4 6 1.0 comp right 0.682101690939
66 8 180 0.0 6 0.0 comp right 0.952574584433
67 8 180 0.4 6 2.0 equ n 0.882024420635
68 8 180 0.4 6 -0.5 equ m 1.09367989473
69 8 0 0.2 6 -1.0 equ m 1.1760363937
70 8 90 0.6 6 -1.0 equ n 1.62291976728
71 8 90 0.0 6 1.5 equ m 1.17602297872
72 8 0 0.0 6 0.0 equ m 1.8463570463
73 8 270 0.6 6 2.0 equ n 0.87026292984
74 8 180 0.8 6 -2.0 equ n 1.29341021524
75 8 270 0.0 6 1.0 equ m 1.72876628531
76 8 270 0.0 6 -0.5 comp down 0.752676768277
77 8 270 0.2 6 -1.5 equ n 1.6229297327
78 8 270 0.0 6 2.0 equ n 0.99962897989
79 8 0 0.0 6 1.0 equ n 1.27010838923
80 8 90 0.0 6 1.5 comp down 0.717403794447
81 8 90 0.0 6 1.0 equ n 1.41125202806
82 8 180 0.4 6 1.5 equ n 1.30538366277
83 8 180 0.0 6 0.0 equ m 1.0701760774
84 8 180 0.0 6 2.0 comp left 0.764409895965
85 8 90 0.8 6 1.5 comp down 0.928921669146
86 8 0 0.0 6 -1.0 comp left 0.882007556085
87 8 270 0.6 6 0.0 equ m 1.25832888403
88 8 270 0.8 6 -1.5 equ n 0.811442827449
89 8 270 0.2 6 1.0 comp down 1.04666727737
90 8 90 0.0 6 -1.5 equ n 1.16427681933
91 8 270 0.8 6 -1.0 comp down 0.752656837445
92 8 0 0.6 6 -0.5 comp left 1.08191763737
93 8 90 0.4 6 1.5 equ n 1.39946792343
94 8 270 0.6 6 -2.0 comp down 0.764446691348
95 8 270 0.2 6 1.5 comp up 0.693874297007
96 8 90 0.8 6 -1.5 equ n 0.987863272957
97 8 0 0.6 6 -1.5 comp left 0.729162602246
98 8 0 0.4 6 2.0 equ n 1.07018259325
99 8 180 0.2 6 1.5 comp left 0.776200133153
100 8 270 0.8 6 -2.0 equ n 0.846908210468
101 8 180 0.8 6 1.0 comp left 0.858512554316
102 8 0 0.4 6 0.0 equ m 1.19957240699
103 8 0 0.4 6 0.5 comp right 0.952585699704
104 8 90 0.8 6 2.0 equ n 0.92904202071
105 8 180 0.4 6 1.0 comp left 0.71737466477
106 8 90 0.0 6 -1.5 comp up 0.752667952716
107 8 270 0.6 6 -1.0 comp down 0.705603208557
108 8 90 0.8 6 -1.0 comp up 0.858465410232
109 8 180 0.4 6 -1.5 equ n 1.02315732748
110 8 90 0.0 6 -1.0 equ n 2.28150422591
111 8 180 0.8 6 0.5 comp left 0.882020587783
112 8 90 0.4 6 1.5 comp down 0.893811208257
113 8 180 0.8 6 -0.5 equ n 1.50531712446
114 8 270 0.8 6 -1.0 equ n 0.976128228843
115 8 180 0.2 6 0.5 equ m 1.1642749029
116 8 180 0.6 6 0.0 equ n 2.54022176117
117 8 90 0.0 6 -2.0 comp up 0.870266762692
118 8 180 0.0 6 -0.5 equ n 1.07016879498
119 8 90 0.0 6 2.0 equ n 1.09372933853
120 8 0 0.6 6 -2.0 comp left 0.693876213433
121 8 90 0.6 6 1.0 comp down 0.740917960477
122 8 90 0.0 6 0.0 equ m 1.68170192444
123 8 0 0.8 6 -1.0 comp left 0.658595957184
124 8 180 0.0 6 0.5 equ m 1.21131664995
125 8 270 0.6 6 0.5 equ m 1.39949015398
126 8 270 0.8 6 -2.0 comp down 0.646813768985
127 8 180 0.4 6 0.0 comp right 1.14075843716
128 8 270 0.6 6 -1.5 equ n 0.964352173208
129 8 270 0.2 6 -0.5 comp down 0.776134591378
130 8 180 0.2 6 2.0 comp left 0.658573343355
131 8 270 0.2 6 0.5 equ m 1.14074118933
132 8 270 0.4 6 0.0 equ m 1.57585195684
133 8 180 0.2 6 1.0 equ n 1.05841305347
134 8 180 0.4 6 2.0 comp left 0.587992133454
135 8 0 0.0 6 -1.5 equ n 0.870265612837
136 8 0 0.6 6 -1.5 equ n 0.881981109404
137 8 90 0.0 6 -0.5 equ n 0.999626296893
138 8 270 0.2 6 2.0 comp up 0.72911162531
139 8 90 0.2 6 2.0 comp down 0.717344385236
140 8 90 0.6 6 -2.0 comp up 0.599776238078
141 8 0 0.6 6 0.5 equ m 1.17602834471
142 8 0 0.8 6 0.5 comp right 0.776144556793
143 8 180 0.2 6 1.0 comp left 1.17602221215
144 8 0 0.2 6 1.0 equ n 1.54063532594
145 8 90 0.0 6 1.0 comp down 0.799655273257
146 8 0 0.2 6 0.5 comp right 0.623274306129
147 8 270 0.8 6 0.0 equ m 1.21130400154
148 8 270 0.4 6 1.0 comp up 0.63501931566
149 8 90 0.4 6 0.0 equ m 1.07016879499
150 8 90 0.2 6 -1.0 comp down 0.92908226566
151 8 180 0.4 6 1.0 equ n 1.44652385203
152 8 0 0.8 6 0.5 equ m 1.55235925479
153 8 180 0.0 6 2.0 equ n 0.764398014122
154 8 270 0.8 6 -1.5 comp down 0.811468890845
155 8 0 0.4 6 0.0 comp left 1.41126046033
156 8 270 0.0 6 0.5 comp down 0.98788473693
157 8 0 0.6 6 -2.0 equ n 0.787942076402
158 8 0 0.4 6 -1.5 comp left 0.682077543969
159 8 270 0.2 6 0.0 comp down 0.823242263483
160 8 180 0.4 6 -0.5 comp right 0.705645753219
161 8 180 0.6 6 1.5 equ n 1.08192491979
162 8 90 0.8 6 1.0 comp down 0.929076516381
163 8 180 0.2 6 -0.5 comp right 0.823211217379
164 8 180 0.2 6 2.0 equ n 1.05842876816
165 8 0 0.2 6 2.0 equ n 1.08193411863
166 8 90 0.6 6 2.0 equ n 0.882010622367
167 8 0 0.0 6 1.5 comp right 0.635055727757
168 8 90 0.8 6 -1.0 equ n 2.5990253823
169 8 180 0.6 6 2.0 comp left 0.834976541027
170 8 270 0.4 6 -2.0 equ n 0.893760231321
171 8 0 0.0 6 0.5 equ m 1.18779826778
172 8 180 0.6 6 0.5 equ n 1.17606284038
173 8 270 0.8 6 0.5 equ m 1.18778638594
174 8 180 0.0 6 -1.0 equ n 1.14076303658
175 8 180 0.2 6 0.5 comp right 1.50532134059
176 8 0 0.8 6 1.0 comp right 0.705651119212
177 8 180 0.8 6 -1.5 equ n 0.764440558783
178 8 0 0.0 6 -1.0 equ n 1.46979923136
179 8 180 0.8 6 -1.0 comp right 0.776181352177
180 8 180 0.4 6 1.5 comp left 0.682126221195
181 8 0 0.0 6 2.0 comp right 0.623286571256
182 8 180 0.0 6 -2.0 comp right 0.646809936133
183 8 180 0.8 6 -0.5 comp right 0.764445924778
184 8 180 0.4 6 0.5 equ m 1.28188981086
185 8 180 0.0 6 1.0 comp left 0.599751707823
186 8 270 0.6 6 1.5 comp up 0.870254497565
187 8 180 0.6 6 0.5 comp left 0.776202049579
188 8 90 0.6 6 0.0 comp up 0.787942076402
189 8 270 0.4 6 -0.5 equ n 3.05764993256
190 8 90 0.0 6 0.0 comp up 2.43440743911
191 8 180 0.2 6 1.5 equ n 1.55236807035
192 8 90 0.6 6 -1.5 comp up 0.811491887959
193 8 0 0.2 6 2.0 comp right 0.705608191266
194 8 270 0.2 6 -1.5 comp down 0.611532362881
195 8 180 0.6 6 -1.0 equ n 1.55234047381
196 8 180 0.2 6 -2.0 comp right 0.552756721577
197 8 0 0.2 6 0.0 equ m 1.29365206823
198 8 0 0.0 6 2.0 equ n 0.97610753144
199 8 0 0.6 6 -1.0 comp left 1.0466768595
200 8 90 0.6 6 1.5 equ n 1.03487895661
201 8 0 0.4 6 -0.5 equ m 1.18780593349
202 8 90 0.0 6 0.5 equ m 0.987839125986
203 8 180 0.8 6 -1.0 equ n 1.14077913457
204 8 180 0.8 6 2.0 equ n 0.705602825273
205 8 0 0.2 6 -2.0 equ n 0.740898796216
206 8 0 0.8 6 -0.5 comp left 1.69349369477
207 8 0 0.6 6 -0.5 equ n 0.82319665254
208 8 270 0.8 6 2.0 comp up 0.787943609543
209 8 180 0.6 6 -1.0 comp right 0.623334098626
210 8 270 0.2 6 -1.0 comp down 0.799700500916
211 8 180 0.0 6 -1.5 comp right 0.599751324538
212 8 270 0.0 6 1.5 equ n 1.51706366713
213 8 270 0.6 6 0.0 comp down 0.952580333711
214 8 90 0.2 6 -0.5 comp up 0.729141521558
215 8 90 0.4 6 -1.5 comp up 0.705618539967
216 8 180 0.6 6 1.0 comp left 0.670311070466
217 8 270 0.0 6 -1.0 comp down 0.76441832824
218 8 270 0.8 6 1.0 comp up 0.905538203381
219 8 270 0.4 6 -2.0 comp down 0.764395714411
220 8 90 0.4 6 -0.5 equ n 1.08191763737
221 8 270 0.8 6 1.0 equ m 0.846740331534
222 8 90 0.6 6 0.5 equ m 1.18779865107
223 8 90 0.4 6 0.0 comp up 0.90556081721
224 8 270 0.2 6 1.0 equ n 1.9522093136
225 8 0 0.8 6 1.0 equ n 1.32893117462
226 8 180 0.6 6 -2.0 equ n 1.08195098318
227 8 180 0.8 6 1.5 comp left 0.658576792922
228 8 180 0.0 6 -1.5 equ n 1.09371860654
229 8 180 0.2 6 -1.5 equ n 0.846716184565
230 8 90 0.6 6 -0.5 comp up 1.23478597161
231 8 0 0.4 6 -2.0 equ n 0.834962742759
232 8 0 0.6 6 0.0 equ m 0.987830310427
233 8 90 0.2 6 -0.5 equ n 1.61116019292
234 8 270 0.0 6 -2.0 comp down 0.846767928071
235 8 180 0.8 6 0.0 equ n 1.50530524261
236 8 0 0.4 6 1.5 equ n 1.07020022438
237 8 90 0.8 6 -1.5 comp up 1.09368871029
238 8 90 0.4 6 -2.0 comp up 0.705596692709
239 8 270 0.4 6 2.0 comp up 0.917327290714
240 8 270 0.2 6 -2.0 comp down 0.682087892671
241 8 90 0.8 6 2.0 comp down 1.31716623426
242 8 270 0.4 6 2.0 equ n 1.58766289143
243 8 270 0.4 6 1.5 equ n 0.776175219613
244 8 90 0.2 6 1.5 comp down 0.823199718822
245 8 90 0.6 6 1.0 equ m 1.04665961166
246 8 270 0.4 6 1.5 comp up 0.693815654366
247 8 90 0.8 6 0.5 comp down 0.929088398225
248 8 180 0.8 6 0.5 equ m 1.481801042
249 8 270 0.6 6 -1.5 comp down 0.976097182738
250 8 0 0.4 6 -1.0 comp left 0.72912772329
251 8 180 0.0 6 0.5 comp left 1.19948693438
252 8 180 0.4 6 0.0 equ n 3.83385581499
253 8 180 0.2 6 -2.0 equ n 0.999641245018
254 8 180 0.4 6 -1.0 comp right 0.599774321653
255 8 270 0.2 6 -0.5 equ n 2.32856628707
256 8 180 0.6 6 -0.5 equ n 1.24659230678
257 8 90 0.6 6 1.5 comp down 0.893756015183
258 8 90 0.0 6 -2.0 equ n 0.976177672638
259 8 180 0.2 6 0.0 equ m 1.02312359837
260 8 180 0.6 6 -1.5 comp right 0.740903778924
261 8 270 0.0 6 -1.5 comp down 0.764418711526
262 8 270 0.8 6 0.0 comp down 0.881979576263
263 8 270 0.4 6 1.0 equ n 1.08196823102
264 8 0 0.4 6 -2.0 comp left 1.05840002177
265 8 180 0.8 6 -2.0 comp right 0.623320683643
266 8 0 0.0 6 -1.5 comp left 0.587994816451
267 8 90 0.6 6 -1.0 comp up 1.86973591264
268 8 0 0.6 6 1.5 equ n 1.15250919597
269 8 0 0.8 6 1.5 equ n 1.21133658078
270 8 90 0.4 6 1.0 equ n 1.57586460526
271 8 0 0.8 6 -0.5 equ n 1.15251034583
272 8 180 0.2 6 -0.5 equ n 1.30539286162
273 8 90 0.2 6 -1.5 equ n 0.870218085468
274 8 180 0.6 6 2.0 equ n 0.740872349535
275 8 180 0.4 6 -1.5 comp right 0.835012186554
276 8 270 0.2 6 1.5 equ n 0.917295478039
277 8 90 0.4 6 -1.5 equ n 0.776155672065
278 8 0 0.4 6 1.0 equ n 1.01134907588
279 8 0 0.4 6 1.5 comp right 0.635057644184
280 8 0 0.8 6 -1.5 equ n 3.12822577647
281 8 90 0.4 6 1.0 comp down 0.729161069105
282 8 90 0.4 6 0.5 equ m 1.01136594043
283 8 180 0.6 6 -2.0 comp right 0.646783872737
284 8 90 0.8 6 0.5 equ m 1.15253219309
285 8 180 0.4 6 -2.0 equ n 1.21128253756
286 8 0 0.0 6 -0.5 comp left 1.19956474129
287 8 0 0.6 6 2.0 comp right 0.670331767868
288 8 0 0.6 6 2.0 equ n 1.31689755131
289 8 90 0.2 6 -1.0 equ n 0.952737480658
290 8 0 0.0 6 -2.0 equ n 0.752653771163
291 8 90 0.2 6 1.0 comp down 0.858522519733
292 8 90 0.6 6 2.0 comp down 0.682092108808
293 8 180 0.2 6 -1.0 comp right 0.693832902201
294 8 270 0.8 6 -0.5 comp down 0.740941724163
295 8 180 0.8 6 0.0 comp left 1.79929038571
296 8 180 0.6 6 -0.5 comp right 0.764457040049
297 8 0 0.2 6 -1.5 equ n 0.893774796159
298 8 0 0.8 6 2.0 equ n 1.15250881269
299 8 180 0.8 6 1.5 equ n 1.1878158989
300 8 270 0.8 6 2.0 equ n 0.811465824563
301 8 180 0.6 6 0.0 comp left 0.905538586667
302 8 270 0.6 6 2.0 comp up 0.658558778516
303 8 180 0.0 6 -1.0 comp right 0.764375783579
304 8 180 0.2 6 -1.0 equ n 1.48179644258
305 8 270 0.8 6 -0.5 equ m 1.18775380669
306 8 180 0.8 6 1.0 equ n 1.03490808628
307 8 0 0.4 6 -1.0 equ n 1.17599729861
308 8 0 0.2 6 -0.5 comp left 0.811471957128
309 8 90 0.8 6 1.0 equ m 1.399471373
310 8 90 0.2 6 0.0 equ m 1.22308427331
311 8 270 0.0 6 -1.5 equ n 2.23447512728
312 8 90 0.4 6 -0.5 comp up 0.929058501975
313 8 270 0.2 6 0.0 equ n 3.66918306201
314 8 270 0.4 6 -1.5 comp down 1.43472479928
315 8 0 0.4 6 -1.5 equ n 1.12898736424
316 8 90 0.2 6 1.5 equ n 1.28187371288
317 8 0 0.2 6 1.5 comp right 0.729120057585
318 8 90 0.8 6 0.0 comp up 0.987829927141
319 8 270 0.0 6 0.0 comp up 1.38771563148
320 8 0 0.2 6 0.0 comp left 1.17603984327
321 8 0 0.0 6 1.5 equ n 0.940789713237
322 8 270 0.2 6 -2.0 equ n 0.752690183261
323 8 0 0.0 6 -2.0 comp left 0.846748380524
324 8 90 0.4 6 -2.0 equ n 3.25761175735
325 8 0 0.2 6 -1.5 comp left 0.670322952308
326 8 180 0.0 6 1.5 equ n 0.917303143744
327 8 270 0.6 6 -1.0 equ n 0.976118646712
328 8 180 0.8 6 2.0 comp left 0.799705100339
329 8 270 0.4 6 -0.5 comp down 0.764395714411
330 8 270 0.0 6 0.0 equ n 1.97575529231
331 8 90 0.6 6 0.5 comp up 1.03509742919
332 8 270 0.6 6 -0.5 equ n 1.05844984885
333 8 0 0.2 6 0.5 equ m 0.999656576428
334 8 270 0.6 6 -0.5 comp up 1.45825084716
335 8 90 0.8 6 -0.5 equ m 1.22307354132
336 8 90 0.4 6 -1.0 comp up 0.846752979946
337 8 180 0.2 6 -1.5 comp right 0.74088001524
338 8 0 0.0 6 1.0 comp left 0.952556186741
339 8 270 0.0 6 -0.5 equ n 0.9408426066
340 8 270 0.4 6 0.5 equ n 1.19954711016
341 8 90 0.8 6 1.5 equ m 0.917303143744
342 8 0 0.2 6 1.5 equ n 1.0819168708
343 8 90 0.8 6 -0.5 comp up 1.39944300989
344 8 0 0.8 6 -1.0 equ n 1.42296905777
345 8 90 0.8 6 0.0 equ n 1.47005948204
346 8 0 0.4 6 0.5 equ m 1.16429138417
347 8 0 0.0 6 -0.5 equ n 0.776197833442
348 8 270 0.4 6 -1.0 comp down 0.693883495853
349 8 90 0.0 6 -0.5 comp up 0.752668336002
350 8 0 0.6 6 0.5 comp right 0.811429029181
351 8 90 0.2 6 0.0 comp down 1.0113824217
352 8 270 0.6 6 1.0 comp up 1.25835648057
353 8 90 0.8 6 -2.0 comp up 0.764423694233
354 8 0 0.6 6 1.0 comp right 0.776161038059
355 8 0 0.6 6 -1.0 equ n 1.82284556326
356 8 0 0.8 6 0.0 equ n 0.834981140451
357 8 90 0.2 6 -1.5 comp up 0.776232329114
358 8 180 0.0 6 -2.0 equ n 0.893784378291
359 8 90 0.2 6 -2.0 comp up 0.952592598839
360 8 180 0.0 6 -0.5 comp right 0.63505227819
