trial size orLarge phase dur orSmall task response rt
1 8 270 0.2 6 0.0 comp down 1.77582029748
2 8 180 0.4 6 1.0 comp left 1.28182695208
3 8 270 0.8 6 1.5 equ n 1.78715864138
4 8 270 0.4 6 -1.5 equ n 0.917275547206
5 8 270 0.6 6 -2.0 comp down 0.799703567198
6 8 90 0.4 6 0.0 comp up 0.999601383353
7 8 90 0.0 6 1.0 comp down 1.51704603601
8 8 270 0.4 6 -2.0 equ n 1.34087549247
9 8 270 0.4 6 1.5 comp up 0.929080349233
10 8 0 0.6 6 -2.0 comp left 0.858482274782
11 8 0 0.0 6 1.5 comp right 0.740885381232
12 8 0 0.4 6 1.0 comp right 0.752655687589
13 8 0 0.4 6 -0.5 comp left 0.87025334771
14 8 180 0.6 6 2.0 comp left 0.987846025122
15 8 0 0.4 6 -2.0 comp left 0.82321198395
16 8 90 0.0 6 -1.5 equ n 1.14076571958
17 8 180 0.2 6 1.5 comp left 0.881984942256
18 8 0 0.6 6 -0.5 equ n 1.9169512879
19 8 90 0.4 6 -0.5 equ m 1.36418920033
20 8 90 0.8 6 0.0 comp up 1.30540589332
21 8 0 0.6 6 1.0 equ m 1.54059278128
22 8 0 0.8 6 2.0 equ n 1.36420338188
23 8 0 0.6 6 -1.5 equ n 0.858497606192
24 8 270 0.2 6 0.5 comp down 1.74049787986
25 8 180 0.0 6 -2.0 equ n 1.02313164736
26 8 180 0.0 6 -1.0 comp right 0.729122740582
27 8 0 0.6 6 0.0 equ n 1.27012065436
28 8 0 0.2 6 0.0 equ n 1.31706772995
29 8 90 0.4 6 1.0 comp down 1.24659115692
30 8 0 0.4 6 0.0 equ n 3.88087801449
31 8 0 0.0 6 -2.0 equ n 0.787785696026
32 8 90 0.8 6 2.0 comp down 0.776161038058
33 8 0 0.4 6 0.5 equ m 1.0466638278
34 8 0 0.4 6 -1.0 equ n 1.14076227001
35 8 180 0.8 6 -1.5 equ n 1.31714630343
36 8 270 0.6 6 0.0 comp down 1.6464109362
37 8 0 0.6 6 -2.0 equ n 0.964341057936
38 8 0 0.2 6 -1.0 equ n 0.776151455928
39 8 0 0.6 6 2.0 comp right 0.823205851386
40 8 270 0.0 6 0.5 equ m 1.37617222999
41 8 180 0.0 6 -2.0 comp right 0.764401080405
42 8 0 0.8 6 -2.0 equ n 0.858499139333
43 8 180 0.2 6 -1.0 equ n 1.36418881704
44 8 270 0.0 6 1.5 comp up 0.846740331535
45 8 90 0.8 6 -1.0 equ n 2.1286274594
46 8 0 0.6 6 0.5 comp right 1.22305744334
47 8 180 0.8 6 1.5 comp left 0.940817309775
48 8 180 0.0 6 1.5 comp left 0.976128995413
49 8 0 0.8 6 -0.5 equ m 1.16427528619
50 8 180 0.4 6 -1.0 equ n 1.45826196243
51 8 180 0.0 6 -1.0 equ n 4.25722348941
52 8 0 0.6 6 1.5 comp right 0.82323843063
53 8 270 0.8 6 1.5 comp up 0.917271714354
54 8 180 0.4 6 2.0 equ n 1.07022283821
55 8 270 0.0 6 2.0 equ n 1.12898889738
56 8 90 0.8 6 -2.0 comp up 0.882012922079
57 8 180 0.6 6 -0.5 equ m 1.7522244917
58 8 270 0.2 6 1.0 equ m 1.2583269676
59 8 0 0.8 6 1.5 equ n 1.15252759366
60 8 0 0.8 6 -1.5 equ m 1.99925067736
61 8 270 0.2 6 1.0 comp up 1.25834459872
62 8 0 0.8 6 2.0 comp right 0.740898029646
63 8 90 0.6 6 1.5 equ n 8.92607002698
64 8 270 0.4 6 0.5 comp down 2.92832911017
65 8 180 0.0 6 0.0 comp left 1.29363022097
66 8 0 0.6 6 -1.0 equ n 0.929052369413
67 8 180 0.4 6 -1.5 equ n 1.05839772206
68 8 180 0.4 6 -0.5 comp right 0.682098624658
69 8 0 0.0 6 1.5 equ n 7.04444192328
70 8 270 0.4 6 1.0 comp up 0.987884736931
71 8 270 0.6 6 0.5 comp down 0.846740714818
72 8 180 0.2 6 -1.5 equ n 2.39909383704
73 8 180 0.8 6 2.0 comp left 0.799677887086
74 8 270 0.8 6 -1.5 comp down 0.893790894139
75 8 90 0.8 6 -1.5 equ n 1.09373892066
76 8 270 0.0 6 0.0 comp down 0.917287812334
77 8 90 0.4 6 -2.0 equ n 1.02310865025
78 8 90 0.0 6 -0.5 comp up 0.705650735927
79 8 180 0.4 6 -1.5 comp right 0.740902629068
80 8 270 0.4 6 -0.5 comp down 0.98783414328
81 8 180 0.6 6 -1.0 equ m 1.63465289497
82 8 270 0.8 6 1.0 comp down 2.70484890321
83 8 270 0.4 6 2.0 comp up 0.811452026295
84 8 180 0.0 6 0.5 comp right 3.6574323032
85 8 0 0.2 6 0.0 comp left 0.952566152157
86 8 0 0.8 6 1.5 comp right 0.646792688298
87 8 270 0.4 6 0.0 comp down 0.929029372297
88 8 270 0.6 6 -1.0 comp down 0.952585316418
89 8 90 0.4 6 2.0 comp down 1.07018872582
90 8 270 0.6 6 2.0 equ n 1.19956550786
91 8 180 0.6 6 1.0 comp left 1.41120641711
92 8 0 0.8 6 -1.0 equ n 1.74050861184
93 8 180 0.2 6 2.0 equ n 0.834982290306
94 8 0 0.8 6 0.0 comp right 1.65822532036
95 8 180 0.8 6 -1.0 equ m 1.24656432695
96 8 0 0.2 6 -2.0 equ n 1.12897241611
97 8 90 0.6 6 1.0 equ m 2.66957592938
98 8 90 0.2 6 0.0 equ m 1.09376421749
99 8 90 0.2 6 2.0 comp down 0.858502972185
100 8 180 0.4 6 1.5 equ n 4.03377509512
101 8 270 0.8 6 -1.0 comp down 0.834942428641
102 8 180 0.6 6 0.5 equ m 2.10511674293
103 8 270 0.4 6 1.0 equ m 1.7522555378
104 8 0 0.4 6 -1.0 comp left 0.682079077111
105 8 270 0.2 6 2.0 equ n 1.07017952697
106 8 0 0.6 6 -1.0 comp left 0.764379616432
107 8 180 0.8 6 0.0 equ n 3.25760984093
108 8 90 0.2 6 -2.0 comp up 0.905490676012
109 8 180 0.6 6 -1.5 equ n 1.10549466218
110 8 90 0.0 6 -0.5 equ n 3.2458648314
111 8 180 0.8 6 -2.0 comp right 0.646816835268
112 8 0 0.0 6 -0.5 comp left 0.858496456336
113 8 180 0.6 6 0.5 comp right 1.15249654756
114 8 180 0.8 6 0.0 comp right 0.776165637482
115 8 90 0.2 6 -1.0 comp up 0.740921410044
116 8 270 0.0 6 -2.0 equ n 1.95223499371
117 8 180 0.8 6 0.5 comp right 1.42301811828
118 8 180 0.2 6 -0.5 equ m 1.17606092396
119 8 270 0.6 6 1.5 comp up 0.99962246404
120 8 90 0.8 6 1.0 comp down 2.90477201619
121 8 0 0.4 6 0.5 comp right 0.929081882374
122 8 270 0.6 6 1.5 equ n 0.823209300954
123 8 180 0.0 6 1.0 comp left 0.976135511262
124 8 180 0.0 6 2.0 equ n 1.9639110119
125 8 270 0.2 6 1.5 comp up 0.72910510946
126 8 0 0.0 6 2.0 equ n 1.15250268012
127 8 90 0.6 6 0.0 comp up 1.08196554802
128 8 270 0.6 6 2.0 comp up 0.693855132746
129 8 270 0.4 6 -2.0 comp down 0.75265722073
130 8 180 0.6 6 -2.0 comp right 0.68211127307
131 8 180 0.8 6 2.0 equ n 0.95256116945
132 8 270 0.2 6 -2.0 comp down 0.70562237282
133 8 270 0.0 6 0.0 equ n 1.03487474047
134 8 0 0.4 6 -2.0 equ n 0.799721198318
135 8 90 0.8 6 -2.0 equ n 0.894013966148
136 8 180 0.6 6 1.5 equ n 0.787929427988
137 8 270 0.4 6 -0.5 equ n 1.03488585574
138 8 270 0.0 6 1.0 equ n 1.11724542099
139 8 90 0.6 6 -1.5 comp up 1.25834804829
140 8 270 0.0 6 2.0 comp up 0.776389476061
141 8 90 0.6 6 1.5 comp down 0.811455092578
142 8 90 0.6 6 -2.0 equ n 1.16426953691
143 8 90 0.6 6 -1.0 equ n 1.31716585097
144 8 0 0.2 6 -1.5 comp left 1.10545556708
145 8 90 0.4 6 -0.5 comp up 0.858470009654
146 8 180 0.8 6 1.5 equ n 1.31712637259
147 8 0 0.4 6 1.5 comp right 0.952577650714
148 8 180 0.8 6 -1.5 comp right 0.67034939899
149 8 0 0.2 6 -1.5 equ n 1.44649970506
150 8 0 0.4 6 0.0 comp left 1.29362178869
151 8 90 0.2 6 -0.5 comp up 1.23485841252
152 8 180 0.2 6 1.5 equ n 0.952583016709
153 8 180 0.4 6 -0.5 equ m 1.07017032813
154 8 0 0.8 6 -1.0 comp left 0.670309537325
155 8 90 0.8 6 -0.5 comp up 0.882004489804
156 8 270 0.8 6 1.0 equ n 1.75230421503
157 8 0 0.0 6 1.0 comp right 0.646839065812
158 8 180 0.2 6 0.0 comp left 1.50528569507
159 8 180 0.6 6 0.0 comp right 0.952605630537
160 8 90 0.0 6 -1.5 comp up 0.799723881315
161 8 0 0.8 6 0.5 comp right 0.99965389343
162 8 0 0.2 6 1.0 comp right 0.64681261913
163 8 90 0.2 6 2.0 equ n 1.2113177998
164 8 0 0.6 6 1.5 equ n 1.04663929754
165 8 180 0.0 6 2.0 comp left 1.9639654384
166 8 270 0.0 6 -0.5 comp down 1.84636547857
167 8 90 0.0 6 -2.0 comp up 0.952596431691
168 8 270 0.8 6 -0.5 comp down 0.976124395989
169 8 90 0.6 6 -0.5 comp up 0.799662555677
170 8 0 0.4 6 2.0 comp right 0.717370831917
171 8 180 0.2 6 2.0 comp left 0.740875415817
172 8 90 0.2 6 -0.5 equ n 1.54058319915
173 8 180 0.8 6 -0.5 comp right 1.02312091538
174 8 0 0.6 6 -0.5 comp left 0.917310426164
175 8 0 0.6 6 0.0 comp left 1.15249003171
176 8 270 0.6 6 1.0 comp up 1.11722740658
177 8 180 0.0 6 0.5 equ m 1.34072141181
178 8 90 0.2 6 0.5 comp down 1.14072317492
179 8 270 0.0 6 -1.5 equ n 1.65798500051
180 8 180 0.8 6 -1.0 comp right 0.787985387633
181 8 90 0.0 6 2.0 equ n 1.09370749127
182 8 180 0.6 6 -1.0 comp right 0.917291645188
183 8 180 0.4 6 0.5 equ m 1.86994825266
184 8 270 0.6 6 0.5 equ m 1.42297749004
185 8 0 0.0 6 0.0 comp left 0.987860973246
186 8 180 0.8 6 1.0 equ m 1.5170981628
187 8 270 0.0 6 -1.0 comp down 0.929039720999
188 8 90 0.2 6 -2.0 equ n 2.0227801748
189 8 0 0.0 6 -2.0 comp left 0.693819103933
190 8 270 0.2 6 -1.5 comp down 0.682120088632
191 8 90 0.4 6 0.0 equ n 0.999607899203
192 8 270 0.4 6 0.0 equ n 1.01137897213
193 8 0 0.2 6 0.5 comp right 1.35242540982
194 8 270 0.0 6 0.5 comp down 1.17599576546
195 8 180 0.0 6 0.0 equ n 1.84639345839
196 8 270 0.4 6 0.5 equ m 1.12896934983
197 8 90 0.0 6 -1.0 equ n 1.03487972318
198 8 0 0.6 6 2.0 equ n 0.882025953775
199 8 0 0.0 6 0.5 equ n 1.28185263219
200 8 180 0.8 6 1.0 comp left 0.882056616594
201 8 270 0.6 6 -1.5 comp down 1.08191802065
202 8 0 0.2 6 -2.0 comp left 0.717392679175
203 8 90 0.6 6 -0.5 equ n 1.09372818867
204 8 0 0.2 6 -0.5 equ n 0.940810793925
205 8 180 0.2 6 -1.0 comp right 0.693886945419
206 8 180 0.2 6 0.5 equ m 1.17600074817
207 8 270 0.6 6 -0.5 equ n 2.64607901119
208 8 270 0.8 6 0.0 equ n 0.776166404052
209 8 180 0.6 6 1.0 equ n 1.25835226443
210 8 180 0.2 6 1.0 comp left 0.905505240849
211 8 270 0.2 6 -1.0 comp down 1.03491881827
212 8 90 0.8 6 0.5 equ m 1.39945757473
213 8 0 0.0 6 -1.0 comp left 0.764392648129
214 8 90 0.0 6 2.0 comp down 0.905501407999
215 8 180 0.0 6 1.0 equ n 1.42297174076
216 8 270 0.8 6 2.0 comp up 1.25838331053
217 8 90 0.0 6 0.0 equ m 2.08154316769
218 8 90 0.6 6 1.0 comp down 0.905560433926
219 8 270 0.8 6 -2.0 comp down 0.89378437829
220 8 90 0.0 6 -1.0 comp up 0.811426346185
221 8 90 0.0 6 1.5 comp down 0.976104848443
222 8 90 0.8 6 0.0 equ m 1.59939793555
223 8 90 0.2 6 1.0 comp down 0.835011036699
224 8 270 0.8 6 2.0 equ n 0.964341824507
225 8 180 0.8 6 -2.0 equ n 1.17603792684
226 8 0 0.4 6 2.0 equ n 0.964354472919
227 8 90 0.6 6 -1.0 comp up 1.23485764595
228 8 90 0.4 6 -1.0 comp up 0.717397661883
229 8 270 0.0 6 1.0 comp up 1.62290711887
230 8 270 0.2 6 2.0 comp up 0.764415261958
231 8 90 0.8 6 -1.0 comp up 0.999645077871
232 8 90 0.0 6 -2.0 equ n 1.21133006493
233 8 0 0.2 6 -0.5 comp left 0.858484191209
234 8 90 0.2 6 1.5 equ n 1.63479930993
235 8 90 0.4 6 2.0 equ n 1.0231331805
236 8 180 0.2 6 -2.0 comp right 0.717395745456
237 8 90 0.6 6 0.0 equ m 1.3406620026
238 8 90 0.8 6 -0.5 equ n 0.987863272958
239 8 180 0.6 6 -2.0 equ n 0.940843756456
240 8 180 0.0 6 1.5 equ m 1.17604635911
241 8 0 0.8 6 0.0 equ m 1.39947827213
242 8 90 0.6 6 0.5 comp up 1.16426110464
243 8 90 0.0 6 1.5 equ m 1.66991322039
244 8 90 0.0 6 0.5 comp down 1.81111090243
245 8 90 0.4 6 0.5 comp down 1.29366433335
246 8 90 0.2 6 -1.5 comp up 0.693885412278
247 8 180 0.4 6 -2.0 equ n 1.11721974088
248 8 0 0.4 6 1.5 equ n 1.26992057947
249 8 0 0.8 6 -0.5 comp left 0.740898412931
250 8 0 0.2 6 1.0 equ m 1.1642645542
251 8 270 0.6 6 0.0 equ n 1.28187256302
252 8 0 0.0 6 1.0 equ m 1.23484729724
253 8 270 0.4 6 -1.0 comp down 0.940756750708
254 8 0 0.0 6 -0.5 equ m 5.75080825274
255 8 90 0.0 6 1.0 equ m 1.21152707354
256 8 90 0.4 6 0.5 equ m 1.65820807252
257 8 270 0.0 6 1.5 equ n 1.51707133283
258 8 90 0.0 6 0.5 equ m 4.84522520499
259 8 90 0.8 6 1.5 comp down 0.729110475455
260 8 270 0.6 6 -1.5 equ n 1.17603294413
261 8 0 0.2 6 1.5 equ n 1.14077146886
262 8 90 0.4 6 -1.0 equ n 1.88162388756
263 8 0 0.0 6 0.5 comp left 1.15251647839
264 8 90 0.2 6 -1.0 equ n 1.48179414286
265 8 180 0.6 6 0.0 equ m 1.84636777828
266 8 0 0.8 6 0.5 equ n 1.22307469118
267 8 270 0.4 6 -1.5 comp down 0.75264917174
268 8 180 0.6 6 -1.5 comp right 0.693858582312
269 8 90 0.4 6 1.0 equ n 1.44651810275
270 8 270 0.2 6 1.5 equ n 0.905574232193
271 8 90 0.8 6 2.0 equ n 0.976098332594
272 8 270 0.2 6 0.5 equ m 1.10545863337
273 8 90 0.6 6 2.0 equ n 1.24661262089
274 8 0 0.6 6 1.0 comp right 0.858525586014
275 8 0 0.4 6 -0.5 equ m 2.30502030837
276 8 90 0.2 6 1.5 comp down 0.9643238101
277 8 180 0.4 6 0.5 comp right 0.846741098105
278 8 90 0.8 6 1.0 equ m 1.37593459314
279 8 180 0.2 6 1.0 equ n 0.940838773748
280 8 180 0.6 6 2.0 equ n 0.82321045081
281 8 0 0.2 6 2.0 equ n 1.08194868347
282 8 180 0.4 6 1.0 equ n 2.51668459803
283 8 270 0.2 6 -0.5 comp down 1.23485151338
284 8 270 0.8 6 -1.0 equ n 1.01133796061
285 8 180 0.0 6 -0.5 comp right 0.846754513088
286 8 270 0.2 6 -2.0 equ n 0.976076868619
287 8 180 0.2 6 0.0 equ m 1.5759128992
288 8 90 0.4 6 1.5 comp up 2.10512210893
289 8 270 0.6 6 -2.0 equ n 1.2230662589
290 8 0 0.2 6 0.5 equ n 1.42301351885
291 8 90 0.8 6 -1.5 comp up 1.44648475694
292 8 270 0.8 6 -2.0 equ n 1.05842646845
293 8 270 0.0 6 -2.0 comp down 0.729132705997
294 8 90 0.6 6 0.5 equ m 3.30464085598
295 8 0 0.8 6 -2.0 comp left 0.787944759399
296 8 0 0.8 6 1.0 comp right 0.776176369467
297 8 270 0.8 6 -1.5 equ n 1.36421258072
298 8 90 0.4 6 -2.0 comp up 0.870244532149
299 8 180 0.2 6 -2.0 equ n 1.66993046822
300 8 270 0.6 6 1.0 equ m 1.09365843076
301 8 180 0.8 6 -0.5 equ m 1.41126812604
302 8 180 0.4 6 0.0 comp right 0.811448193443
303 8 0 0.6 6 0.5 equ n 4.44541845741
304 8 180 0.2 6 0.5 comp left 0.752645722172
305 8 90 0.6 6 -1.5 equ n 0.846758345941
306 8 90 0.6 6 -2.0 comp up 0.693852449747
307 8 270 0.2 6 -0.5 equ n 1.75229309975
308 8 0 0.0 6 2.0 comp right 0.752684050696
309 8 0 0.2 6 1.5 comp right 2.3520831361
310 8 180 0.4 6 -2.0 comp right 0.776399824763
311 8 270 0.4 6 1.5 equ m 1.3053648818
312 8 90 0.0 6 0.0 comp up 1.64643661631
313 8 270 0.0 6 -1.0 equ n 0.905550468507
314 8 90 0.2 6 1.0 equ m 1.38770030007
315 8 0 0.4 6 -1.5 equ n 0.929084182086
316 8 270 0.2 6 -1.0 equ n 0.905530537677
317 8 0 0.4 6 1.0 equ m 1.08194753362
318 8 180 0.0 6 -1.5 comp right 0.682099391228
319 8 180 0.8 6 0.5 equ m 1.56413646028
320 8 180 0.2 6 -1.5 comp right 0.858500289189
321 8 270 0.2 6 -1.5 equ n 1.3877098822
322 8 90 0.4 6 1.5 equ n 1.24658502436
323 8 90 0.4 6 -1.5 comp up 0.776158738348
324 8 0 0.6 6 -1.5 comp left 0.693846317185
325 8 0 0.0 6 0.0 equ n 1.18778676922
326 8 180 0.4 6 1.5 comp left 0.776176369469
327 8 0 0.2 6 -1.0 comp left 0.776184418457
328 8 180 0.4 6 0.0 equ m 1.21135076233
329 8 90 0.4 6 -1.5 equ n 0.940777831394
330 8 270 0.6 6 -0.5 comp down 1.32869507091
331 8 180 0.0 6 -1.5 equ n 0.976112897433
332 8 0 0.4 6 -1.5 comp left 0.799674054235
333 8 270 0.8 6 -0.5 equ n 0.97612286285
334 8 270 0.8 6 0.0 comp down 0.776209715284
335 8 270 0.8 6 0.5 comp down 1.03491651856
336 8 90 0.2 6 0.5 equ m 1.38772329719
337 8 270 0.8 6 0.5 equ n 1.24658425779
338 8 90 0.2 6 -1.5 equ n 1.16427988561
339 8 0 0.8 6 -1.5 comp left 0.670430272174
340 8 0 0.0 6 -1.5 comp left 0.729138071991
341 8 180 0.4 6 2.0 comp left 0.764389581847
342 8 180 0.4 6 -1.0 comp right 0.740894963365
343 8 90 0.8 6 0.5 comp down 1.18777335424
344 8 270 0.0 6 -1.5 comp down 0.952577650714
345 8 180 0.0 6 -0.5 equ n 1.35243767495
346 8 0 0.0 6 -1.5 equ n 0.91733648956
347 8 90 0.6 6 2.0 comp down 0.882082296706
348 8 270 0.0 6 -0.5 equ n 1.47001387109
349 8 270 0.2 6 0.0 equ m 1.23480206959
350 8 270 0.6 6 -1.0 equ n 0.882034386052
351 8 180 0.6 6 1.5 comp left 0.823218499798
352 8 270 0.4 6 -1.0 equ n 1.37597100524
353 8 0 0.2 6 2.0 comp right 0.693828686064
354 8 90 0.2 6 0.0 comp up 0.905517889263
355 8 90 0.8 6 1.5 equ n 1.32891201036
356 8 180 0.6 6 -0.5 comp right 0.846734582256
357 8 0 0.0 6 -1.0 equ n 1.90513460403
358 8 180 0.2 6 -0.5 comp right 0.658602473033
359 8 270 0.4 6 2.0 equ n 0.893765214028
360 8 0 0.8 6 1.0 equ n 0.917273247494
