trial size orLarge phase dur orSmall task response rt
1 8 270 0.0 6 1.5 equ n 0.776197358926
2 8 0 0.2 6 1.0 comp right 0.811459352635
3 8 180 0.0 6 -0.5 equ m 0.787914433542
4 8 0 0.8 6 0.0 comp left 0.882017452575
5 8 270 0.0 6 -2.0 equ n 1.08194056526
6 8 0 0.0 6 -0.5 comp left 0.81143213928
7 8 0 0.2 6 1.5 comp right 0.729123618778
8 8 90 0.4 6 -1.0 comp up 0.787889519906
9 8 270 0.4 6 -1.5 comp down 0.846713297327
10 8 270 0.4 6 2.0 equ n 0.693876189962
11 8 0 0.6 6 -1.5 equ n 0.823255001029
12 8 90 0.0 6 -1.0 comp up 1.19953254353
13 8 0 0.0 6 0.0 comp left 3.61038829626
14 8 0 0.8 6 -2.0 comp left 0.717393512412
15 8 90 0.0 6 1.0 comp up 4.85699381337
16 8 90 0.4 6 0.5 comp down 1.04664714204
17 8 90 0.2 6 1.5 equ n 1.32890713845
18 8 180 0.2 6 -0.5 comp right 1.64644177703
19 8 90 0.4 6 1.5 equ n 0.917312408945
20 8 90 0.0 6 -0.5 comp down 1.17598992416
21 8 90 0.8 6 2.0 comp down 0.787966560534
22 8 180 0.4 6 0.5 comp left 0.623286277225
23 8 90 0.4 6 -2.0 equ n 0.611553487852
24 8 0 0.2 6 -2.0 equ n 0.776172062002
25 8 270 0.6 6 -1.0 equ n 0.658543671496
26 8 180 0.0 6 1.0 equ m 0.952582451679
27 8 90 0.2 6 -0.5 equ n 0.705642325278
28 8 0 0.2 6 -1.5 comp left 1.03489672148
29 8 270 0.6 6 -2.0 comp down 1.63467449185
30 8 270 0.6 6 -1.0 comp down 0.799698966621
31 8 180 0.8 6 2.0 comp left 0.764415892141
32 8 180 0.2 6 0.0 comp left 1.48178909036
33 8 90 0.8 6 -0.5 equ n 1.0113717333
34 8 270 0.6 6 -2.0 equ n 0.729165780316
35 8 90 0.8 6 1.0 equ m 0.799697433473
36 8 270 0.0 6 2.0 comp up 0.823192525295
37 8 270 0.0 6 0.0 comp down 0.905491463631
38 8 180 0.6 6 -1.0 equ m 0.905500662511
39 8 180 0.8 6 1.5 comp left 1.38773321559
40 8 0 0.4 6 -2.0 comp left 1.18784881486
41 8 90 0.6 6 0.5 equ n 0.658538688769
42 8 180 0.6 6 -2.0 comp right 1.15251399667
43 8 0 0.2 6 0.5 comp right 1.07019742715
44 8 0 0.4 6 -0.5 comp left 1.37595289866
45 8 270 0.8 6 1.5 comp up 0.905539374467
46 8 0 0.4 6 -0.5 equ n 1.21131094402
47 8 90 0.8 6 -1.5 comp up 1.50535509022
48 8 0 0.2 6 1.5 equ n 0.635045896666
49 8 180 0.6 6 -1.0 comp left 1.12898709205
50 8 90 0.2 6 -1.5 equ n 1.37571449433
51 8 180 0.0 6 1.5 equ n 1.08192255079
52 8 0 0.6 6 2.0 equ n 0.529231552315
53 8 0 0.8 6 1.0 equ n 0.740930765773
54 8 0 0.4 6 1.0 comp right 0.811452836762
55 8 0 0.8 6 -1.5 comp left 0.870220271037
56 8 270 0.6 6 0.0 comp down 1.37573135895
57 8 0 0.8 6 0.5 equ n 0.564703970429
58 8 0 0.4 6 0.5 comp right 1.07017711295
59 8 90 0.0 6 2.0 equ n 0.729112120178
60 8 90 0.2 6 1.0 comp down 2.14032701255
61 8 90 0.0 6 0.0 equ n 0.705615495208
62 8 180 0.6 6 -1.5 comp right 0.83497284222
63 8 180 0.8 6 -1.0 equ n 1.19954480871
64 8 90 0.2 6 2.0 equ n 0.599772404354
65 8 180 0.8 6 2.0 equ n 0.658575484293
66 8 180 0.6 6 0.0 equ n 0.776182027457
67 8 180 0.2 6 2.0 comp left 0.905694988871
68 8 90 0.4 6 0.5 equ n 0.82323507012
69 8 270 0.2 6 -0.5 equ m 0.976103223709
70 8 0 0.4 6 0.5 equ m 0.799719280816
71 8 270 0.0 6 1.0 comp up 1.199547875
72 8 180 0.8 6 -2.0 equ n 0.917303976637
73 8 270 0.2 6 0.0 equ n 1.29360221663
74 8 0 0.4 6 2.0 equ n 0.905518676986
75 8 180 0.2 6 1.0 equ n 1.04664675876
76 8 270 0.8 6 -1.5 comp up 0.96433632182
77 8 90 0.0 6 1.0 equ n 1.23485432997
78 8 270 0.2 6 1.5 comp up 0.58802006736
79 8 270 0.2 6 -2.0 comp down 1.01136138456
80 8 90 0.4 6 -0.5 equ n 0.905570037405
81 8 270 0.2 6 1.5 equ m 1.35242906034
82 8 0 0.4 6 -1.0 comp right 1.08197352792
83 8 0 0.2 6 -0.5 equ n 1.3406663746
84 8 0 0.0 6 2.0 equ n 1.35242331104
85 8 0 0.4 6 -1.5 equ n 2.41083697168
86 8 0 0.8 6 -0.5 comp right 0.68209548975
87 8 270 0.6 6 -0.5 comp up 0.823221655086
88 8 180 0.0 6 0.5 equ n 0.646810498836
89 8 90 0.4 6 0.0 comp down 1.2936604762
90 8 0 0.6 6 1.5 comp right 0.97607524378
91 8 0 0.4 6 2.0 comp right 0.717155108081
92 8 270 0.8 6 0.0 comp up 1.38769028748
93 8 180 0.8 6 0.0 comp right 1.78756142648
94 8 270 0.8 6 -2.0 comp down 1.08196586219
95 8 270 0.2 6 1.0 comp up 0.952628062796
96 8 90 0.6 6 1.5 comp down 1.99927175526
97 8 180 0.2 6 -1.5 comp right 1.28184106404
98 8 180 0.0 6 -2.0 comp right 0.740883238221
99 8 0 0.4 6 -1.5 comp left 1.5643271996
100 8 270 0.6 6 0.5 comp up 1.64631529241
101 8 270 0.4 6 1.5 equ n 0.799731545991
102 8 270 0.0 6 -2.0 comp down 1.82283913495
103 8 270 0.6 6 1.0 comp up 1.11723437177
104 8 180 0.2 6 2.0 equ n 2.64605657388
105 8 90 0.0 6 -1.0 equ n 0.823214755925
106 8 90 0.0 6 -2.0 comp up 0.811433672427
107 8 0 0.2 6 -0.5 comp left 0.976099007556
108 8 0 0.8 6 -1.5 equ n 0.96433287224
109 8 0 0.0 6 0.0 equ m 0.976066811472
110 8 270 0.6 6 -1.5 equ n 3.23408239054
111 8 180 0.4 6 2.0 comp left 0.846743193692
112 8 0 0.0 6 -1.0 equ n 5.98602230039
113 8 180 0.2 6 1.0 comp left 1.22309624368
114 8 270 0.0 6 -0.5 comp down 1.24660743354
115 8 270 0.2 6 0.5 comp down 3.25764302439
116 8 0 0.8 6 -0.5 equ n 0.58801278491
117 8 270 0.0 6 -0.5 equ m 0.917282129296
118 8 90 0.8 6 0.0 equ n 0.646795167369
119 8 90 0.8 6 1.5 equ n 0.611535856664
120 8 90 0.6 6 0.0 comp up 1.96396645015
121 8 180 0.2 6 -2.0 equ n 0.882075712156
122 8 180 0.2 6 -1.0 comp left 1.0466655398
123 8 90 0.4 6 2.0 equ n 0.682266818909
124 8 270 0.0 6 1.5 comp up 1.15247643458
125 8 270 0.2 6 -1.5 comp up 0.776147148366
126 8 180 0.0 6 -1.0 equ n 0.611509793167
127 8 0 0.2 6 0.0 equ m 0.905561988384
128 8 90 0.0 6 0.0 comp up 0.752687702206
129 8 180 0.4 6 -0.5 comp right 3.79858628531
130 8 0 0.8 6 1.5 equ n 1.03467058232
131 8 180 0.6 6 -0.5 comp left 0.752658189132
132 8 180 0.8 6 -0.5 comp left 1.01137901574
133 8 0 0.8 6 0.5 comp right 0.787913666969
134 8 90 0.0 6 -0.5 equ n 2.1403515429
135 8 0 0.8 6 2.0 comp right 0.929049797758
136 8 180 0.6 6 -1.5 equ n 0.976101307277
137 8 0 0.0 6 2.0 comp right 0.717413060034
138 8 270 0.4 6 -2.0 comp down 1.17602940269
139 8 180 0.0 6 -1.5 comp right 1.35244822467
140 8 0 0.6 6 1.0 equ n 0.587980588827
141 8 270 0.8 6 0.5 equ n 0.705609745908
142 8 180 0.8 6 -1.5 comp right 1.18777369066
143 8 270 0.0 6 0.0 equ m 1.43474831287
144 8 0 0.8 6 -1.0 equ m 0.940841613285
145 8 90 0.6 6 1.0 equ m 0.7291374171
146 8 270 0.0 6 0.5 equ n 0.787931681443
147 8 270 0.0 6 -1.0 comp up 1.21126993235
148 8 90 0.6 6 0.5 comp down 1.44650869888
149 8 90 0.0 6 0.5 equ n 0.776140632492
150 8 270 0.2 6 -1.0 equ m 0.811431755994
151 8 0 0.4 6 0.0 equ n 0.752650523396
152 8 270 0.4 6 -1.5 equ n 0.752660872138
153 8 180 0.4 6 -0.5 equ n 1.49356250812
154 8 180 0.6 6 1.5 comp left 1.08195053072
155 8 180 0.0 6 -0.5 comp right 1.21132589221
156 8 0 0.6 6 0.0 comp left 0.987836396369
157 8 270 0.4 6 1.5 comp up 0.882027034744
158 8 270 0.2 6 -1.0 comp up 2.17569019395
159 8 90 0.8 6 -0.5 comp up 0.999617863154
160 8 270 0.6 6 -1.5 comp down 1.19953024381
161 8 180 0.6 6 0.5 comp left 0.89381540069
162 8 90 0.2 6 0.5 equ n 2.02277451281
163 8 90 0.2 6 0.0 equ n 0.882036233626
164 8 180 0.4 6 0.0 comp right 1.58764138009
165 8 0 0.2 6 2.0 equ n 1.24659670151
166 8 0 0.0 6 1.5 comp right 0.776174361723
167 8 270 0.4 6 0.5 equ n 0.870263199147
168 8 180 0.4 6 -1.5 equ n 1.39945220664
169 8 90 0.8 6 0.5 equ n 0.717398111852
170 8 270 0.4 6 -1.0 equ n 0.682049495344
171 8 180 0.0 6 1.5 comp left 0.705613195489
172 8 90 0.6 6 -2.0 equ m 0.940798685175
173 8 180 0.4 6 -2.0 comp right 1.14071451541
174 8 90 0.4 6 1.5 comp down 1.37594944908
175 8 0 0.4 6 -2.0 equ n 0.764417041999
176 8 90 0.6 6 -0.5 equ m 0.976125071051
177 8 90 0.6 6 -0.5 comp up 1.15252664513
178 8 180 0.8 6 0.5 comp left 1.11725046981
179 8 90 0.8 6 0.5 comp up 1.16426863339
180 8 270 0.2 6 2.0 equ n 0.764418958433
181 8 0 0.2 6 0.0 comp right 1.15250288136
182 8 0 0.6 6 0.5 comp right 0.611530873935
183 8 0 0.4 6 -1.0 equ m 1.12898210933
184 8 0 0.2 6 2.0 comp right 0.635063911142
185 8 180 0.2 6 0.5 equ n 0.705622011083
186 8 270 0.2 6 0.0 comp up 0.976099390842
187 8 0 0.6 6 2.0 comp right 1.36419212936
188 8 180 0.2 6 1.5 comp left 0.905552789503
189 8 90 0.2 6 -1.5 comp up 1.66993341927
190 8 0 0.0 6 1.0 comp right 0.740927699479
191 8 180 0.2 6 -1.5 equ n 2.15212611053
192 8 270 0.2 6 0.5 equ n 0.846734378096
193 8 270 0.6 6 1.0 equ m 1.1054870175
194 8 90 0.2 6 -0.5 comp up 1.17605661604
195 8 270 0.0 6 -1.5 equ m 0.811469318092
196 8 90 0.0 6 -2.0 equ m 0.858460651594
197 8 0 0.4 6 1.5 equ n 1.82283146922
198 8 180 0.4 6 0.0 equ n 1.05844738988
199 8 0 0.0 6 -2.0 comp left 1.31714598586
200 8 270 0.6 6 0.0 equ m 1.09371244988
201 8 90 0.4 6 -1.5 equ n 0.846714447187
202 8 270 0.8 6 2.0 comp up 1.27009102676
203 8 90 0.4 6 0.0 equ n 1.3171275881
204 8 270 0.8 6 -1.5 equ m 0.870283513344
205 8 270 0.8 6 1.0 comp up 1.15253124457
206 8 270 0.8 6 1.5 equ n 12.2545104221
207 8 270 0.8 6 1.0 equ n 0.917315858525
208 8 90 0.2 6 1.5 comp down 1.58764214667
209 8 270 0.8 6 -2.0 equ n 4.50419603122
210 8 180 0.0 6 0.0 equ m 0.952585134684
211 8 180 0.0 6 2.0 equ n 0.576249715888
212 8 180 0.2 6 -0.5 equ m 1.08194593128
213 8 90 0.0 6 1.5 equ n 1.75228218487
214 8 90 0.6 6 -1.5 equ m 0.905542440762
215 8 0 0.2 6 0.5 equ n 0.729135117381
216 8 0 0.0 6 -1.5 equ m 0.823223188232
217 8 0 0.8 6 -2.0 equ m 0.870234452645
218 8 90 0.4 6 1.0 comp down 0.893806968383
219 8 0 0.8 6 0.0 equ n 1.21132972507
220 8 270 0.0 6 0.5 comp up 0.799697050188
221 8 90 0.0 6 0.5 comp down 0.823230853966
222 8 0 0.6 6 0.0 equ n 0.517450468818
223 8 180 0.8 6 0.0 equ n 0.95257631909
224 8 90 0.6 6 2.0 comp down 1.16430504563
225 8 0 0.2 6 -2.0 comp left 0.999620929446
226 8 270 0.4 6 0.5 comp up 0.976105140142
227 8 270 0.4 6 2.0 comp up 0.705638875697
228 8 180 0.0 6 -1.5 equ n 1.15251667968
229 8 270 0.8 6 0.0 equ m 1.04666094036
230 8 180 0.4 6 2.0 equ n 0.787940497037
231 8 0 0.0 6 1.5 equ n 0.7996851683
232 8 270 0.2 6 1.0 equ n 0.799671369978
233 8 0 0.2 6 -1.5 equ n 1.24658673606
234 8 0 0.2 6 -1.0 comp left 1.0584033119
235 8 270 0.6 6 -0.5 equ m 0.905564671391
236 8 90 0.0 6 -1.5 comp up 0.952563287343
237 8 90 0.6 6 -1.0 equ n 0.670366149958
238 8 90 0.6 6 1.0 comp down 1.15250326464
239 8 90 0.6 6 -1.0 comp up 0.999597165672
240 8 90 0.4 6 1.0 equ n 1.35243672607
241 8 180 0.0 6 1.0 comp left 0.976097091121
242 8 90 0.8 6 -2.0 equ n 0.670334720449
243 8 90 0.2 6 2.0 comp up 0.96430949175
244 8 90 0.4 6 -2.0 comp up 0.611512476175
245 8 0 0.8 6 2.0 equ n 0.729130517939
246 8 180 0.4 6 -1.0 equ n 0.670353884783
247 8 270 0.6 6 2.0 comp up 0.846731311804
248 8 270 0.0 6 -1.0 equ m 1.14076664241
249 8 0 0.0 6 -0.5 equ n 0.858540375229
250 8 90 0.2 6 0.5 comp up 0.952554088462
251 8 180 0.2 6 -2.0 comp right 0.917276763281
252 8 0 0.8 6 1.5 comp right 1.11725430268
253 8 0 0.6 6 -2.0 equ m 1.07018401211
254 8 180 0.8 6 -0.5 equ n 0.91730014377
255 8 270 0.4 6 0.0 comp down 0.999612880427
256 8 180 0.6 6 2.0 equ n 0.823178343688
257 8 180 0.6 6 0.5 equ n 2.10511139653
258 8 270 0.6 6 1.5 equ n 1.48179598952
259 8 90 0.6 6 -1.5 comp down 1.47003981966
260 8 180 0.8 6 1.5 equ n 0.717357100175
261 8 0 0.8 6 -1.0 comp left 1.57590667428
262 8 0 0.8 6 1.0 comp right 0.623277844918
263 8 180 0.0 6 -1.0 comp right 0.846621691804
264 8 180 0.0 6 0.5 comp left 1.15248218388
265 8 0 0.6 6 1.5 equ n 0.846739744111
266 8 90 0.6 6 2.0 equ n 0.88204619908
267 8 0 0.6 6 -0.5 equ m 0.929099241745
268 8 90 0.8 6 2.0 equ n 0.846731311802
269 8 270 0.8 6 0.5 comp up 1.36418139733
270 8 180 0.6 6 2.0 comp left 0.74092156689
271 8 90 0.4 6 -1.0 equ m 0.952596633286
272 8 270 0.6 6 0.5 equ m 0.705579849544
273 8 0 0.0 6 -2.0 equ m 0.858563755719
274 8 90 0.2 6 1.0 equ m 0.799680568858
275 8 0 0.4 6 1.0 equ n 0.787914816829
276 8 90 0.8 6 -1.5 equ n 1.17604090129
277 8 90 0.8 6 -1.0 equ n 0.835003505157
278 8 180 0.4 6 0.5 equ n 1.55235638918
279 8 90 0.8 6 1.0 comp down 1.81107376621
280 8 180 0.8 6 1.0 comp left 1.07018286226
281 8 270 0.0 6 2.0 equ n 0.905567737685
282 8 180 0.4 6 -2.0 equ n 0.693883089121
283 8 180 0.2 6 0.0 equ n 0.588010485191
284 8 90 0.6 6 1.5 equ n 0.740861390877
285 8 180 0.2 6 1.5 equ n 0.635057778556
286 8 90 0.6 6 -2.0 comp up 0.964333638813
287 8 90 0.0 6 -1.5 equ n 0.493954610421
288 8 270 0.4 6 -1.0 comp up 0.893801602368
289 8 180 0.8 6 0.5 equ n 0.84676427446
290 8 270 0.4 6 -2.0 equ n 0.729133967519
291 8 90 0.4 6 -1.5 comp up 0.987855560705
292 8 270 0.4 6 1.0 comp up 1.42298946
293 8 270 0.8 6 2.0 equ n 0.858499363554
294 8 0 0.6 6 -1.5 comp left 1.03489863791
295 8 270 0.4 6 0.0 equ n 0.823244652287
296 8 180 0.6 6 0.0 comp right 3.1752448148
297 8 0 0.6 6 -2.0 comp left 0.952611964754
298 8 270 0.6 6 1.5 comp up 0.893787804047
299 8 0 0.6 6 1.0 comp right 0.705646541432
300 8 180 0.8 6 -1.5 equ n 0.505665552453
301 8 0 0.2 6 1.0 equ n 0.599743657851
302 8 270 0.4 6 -0.5 equ n 0.834973992081
303 8 180 0.4 6 1.5 equ n 0.799694367181
304 8 270 0.2 6 -2.0 equ m 1.01140201294
305 8 270 0.0 6 -1.5 comp up 0.976090575248
306 8 90 0.2 6 0.0 comp up 0.799712381655
307 8 0 0.0 6 -1.0 comp left 0.976080609795
308 8 180 0.0 6 -2.0 equ n 0.623305824847
309 8 0 0.0 6 0.5 equ n 0.882015536143
310 8 90 0.0 6 1.5 comp down 1.10543642366
311 8 180 0.6 6 -0.5 equ n 0.952564437202
312 8 0 0.4 6 0.0 comp right 0.799702416201
313 8 180 0.6 6 -2.0 equ n 0.811434439001
314 8 180 0.0 6 2.0 comp left 2.02283775512
315 8 180 0.0 6 0.0 comp right 1.58762029932
316 8 180 0.6 6 1.0 comp left 0.846734761382
317 8 0 0.0 6 0.5 comp right 1.03492278498
318 8 0 0.6 6 -1.0 comp left 0.85852772677
319 8 180 0.6 6 1.0 equ n 0.823187159282
320 8 90 0.0 6 2.0 comp down 2.36380500979
321 8 0 0.4 6 1.5 comp right 0.882012469849
322 8 180 0.6 6 1.5 equ n 0.764436206335
323 8 90 0.2 6 -2.0 comp up 1.23483171606
324 8 0 0.0 6 -1.5 comp left 1.04668393757
325 8 90 0.8 6 0.0 comp up 1.50507107477
326 8 180 0.4 6 1.5 comp left 0.693872357095
327 8 0 0.6 6 -0.5 comp right 1.03489097218
328 8 270 0.2 6 -1.5 equ n 1.83440941076
329 8 0 0.6 6 0.5 equ n 0.764381396337
330 8 180 0.8 6 -2.0 comp right 0.846688000405
331 8 270 0.2 6 2.0 comp up 0.64677293674
332 8 90 0.2 6 -1.0 equ n 2.11687638199
333 8 90 0.2 6 -2.0 equ n 0.799740361585
334 8 270 0.6 6 2.0 equ n 0.588042297988
335 8 90 0.4 6 -0.5 comp up 0.870285046491
336 8 180 0.2 6 0.5 comp left 0.611560003726
337 8 270 0.0 6 1.0 equ n 0.882020518869
338 8 270 0.8 6 -0.5 equ n 0.623303908413
339 8 0 0.2 6 -1.0 equ m 1.17600525563
340 8 90 0.2 6 -1.0 comp up 0.905512927684
341 8 270 0.8 6 -1.0 comp down 1.17599988961
342 8 270 0.8 6 -0.5 comp down 1.30535953635
343 8 90 0.8 6 -1.0 comp up 1.8228636653
344 8 270 0.2 6 -0.5 comp up 1.14076817555
345 8 90 0.8 6 1.5 comp down 0.94082474867
346 8 270 0.4 6 1.0 equ n 1.58763371436
347 8 180 0.4 6 1.0 comp right 1.12899360793
348 8 90 0.6 6 0.0 equ n 1.01136061798
349 8 270 0.8 6 -1.0 equ m 0.882000204674
350 8 0 0.6 6 -1.0 equ m 0.776203491512
351 8 180 0.4 6 -1.5 comp left 1.63467909129
352 8 180 0.8 6 -1.0 comp left 1.28187057711
353 8 180 0.4 6 1.0 equ n 0.588005885749
354 8 180 0.2 6 -1.0 equ m 0.82321283949
355 8 180 0.4 6 -1.0 comp right 0.870260132855
356 8 90 0.8 6 -2.0 comp up 0.670304824085
357 8 90 0.4 6 2.0 comp down 0.952579385385
358 8 0 0.0 6 1.0 equ n 1.90514727217
359 8 270 0.4 6 -0.5 comp down 1.74030409201
360 8 180 0.8 6 1.0 equ n 0.964316774196
